%  1    time 0.000 sec
%  2    mission (0) state 2
%  3  4  5 Acc x,y,z: 10.114887 -0.153437 2.351909
%  6  7  8 Gyro x,y,z: 6.553650 3.807068 -4.638672
%  9 10 Motor velocity ref left, right: 0.84 0.84
% 11 12 Motor voltage [V] left, right: 0.8 0.8
% 13 14 Motor current left, right [A]: 0.000 -0.006
% 15 16 Wheel velocity [r/s] left, right: 0.0000 0.0000
% 17 18 19 20 Pose x,y,h,tilt [m,m,rad,rad]: 0.0000 0.0000 0.000000 -1.333350
% 21    Battery voltage [V]: 11.91
% 22 23 Get data time [us]: 490 +ctrl 870
% 24 25 26 27 Extra pt.: balE[0], balU[0], balUI[0], balUI[1]: 0.00 0.0000 0.0000 0.0000
0.001 2 10.119682 -0.127065 2.375884 6.484985 3.791809 -4.478455 1.68 1.68 0.9 0.9 0.013 -0.013 0.0000 0.0000 0.0000 0.0000 0.000000 -1.333441 11.91 510 730 0.00 0.00 0.0000 0.0000
0.002 2 10.146054 -0.107886 2.464590 6.622314 3.829956 -4.425049 2.52 2.52 1.4 1.4 0.013 -0.013 0.0000 0.0000 0.0000 0.0000 0.000000 -1.333433 11.91 490 670 0.00 0.00 0.0000 0.0000
0.003 2 10.117285 -0.105488 2.493359 6.645203 3.799438 -4.379272 3.36 3.36 1.9 1.9 0.108 0.051 0.0000 0.0000 0.0000 0.0000 0.000000 -1.333315 11.91 490 670 0.00 0.00 0.0000 0.0000
0.004 2 10.167631 -0.119873 2.414243 6.629944 3.784180 -4.409790 4.20 4.20 2.4 2.4 0.329 0.209 0.0000 0.0000 0.0000 0.0000 0.000000 -1.333251 11.91 490 670 0.00 0.00 0.0000 0.0000
0.005 2 10.088515 -0.167822 2.488564 6.706238 3.852844 -4.386902 5.04 5.04 2.9 2.9 0.405 0.361 0.0000 0.0000 0.0002 -0.0000 -0.002595 -1.333187 11.91 490 700 0.00 0.00 0.0000 0.0000
0.006 2 10.069336 -0.112681 2.414243 6.629944 3.959656 -4.287720 5.88 5.88 3.5 3.5 0.551 0.462 0.0000 0.0000 0.0002 -0.0000 -0.002595 -1.333100 11.77 510 720 0.00 0.00 0.0000 0.0000
0.007 2 10.110092 -0.105488 2.344717 6.530762 4.135132 -4.165649 6.72 6.72 4.0 4.0 0.684 0.602 0.0000 0.0000 0.0002 -0.0000 -0.002595 -1.333150 11.77 490 700 0.00 0.00 0.0000 0.0000
0.008 2 10.076528 -0.141450 2.263203 6.652832 4.493713 -4.386902 7.56 7.56 4.6 4.6 0.849 0.760 0.0000 0.0000 0.0004 -0.0000 0.000000 -1.333338 11.77 490 700 0.00 0.00 0.0000 0.0000
0.009 2 10.467314 -0.187002 2.299165 7.514954 4.127502 -4.646301 8.40 8.40 5.2 5.2 1.014 0.880 0.0000 0.0000 0.0004 -0.0000 0.000000 -1.333637 11.77 490 670 0.00 0.00 0.0000 0.0000
0.010 2 9.937475 -0.688071 2.570078 7.965088 4.074097 -4.310608 9.24 9.24 3.7 5.8 1.248 1.020 2.7045 0.0000 0.0006 -0.0000 -0.002595 -1.333616 11.77 490 750 0.00 0.00 0.0000 0.0000
0.011 2 9.388456 1.261064 3.090327 6.179810 4.600525 -4.356384 10.08 10.08 4.0 3.7 1.267 1.185 2.7045 3.7253 0.0008 -0.0000 0.000000 -1.332583 11.52 510 830 0.00 0.00 0.0000 0.0000
0.012 2 11.049897 -0.383594 3.203008 6.172180 5.134583 -4.364014 10.92 10.92 4.4 4.0 1.166 1.204 2.7045 3.7253 0.0010 -0.0000 -0.002595 -1.331274 11.52 490 820 0.00 0.00 0.0000 0.0000
0.013 2 10.328261 -1.543965 -0.234951 7.179260 3.639221 -4.302979 11.76 11.76 3.2 3.6 1.071 1.128 6.4089 7.0431 0.0012 -0.0000 0.000000 -1.333373 11.52 490 790 0.00 0.00 0.0000 0.0000
0.014 2 9.091171 1.052485 1.088447 6.561279 3.356934 -4.257202 12.61 12.61 3.4 4.2 0.982 1.033 8.3992 7.0431 0.0016 -0.0000 0.000000 -1.337059 11.52 490 720 0.00 0.00 0.0000 0.0000
0.015 2 10.170029 -0.064731 7.470488 6.401062 6.706238 -4.219055 13.45 13.45 3.9 3.4 0.861 0.944 8.3992 9.3908 0.0016 -0.0000 0.000000 -1.334148 11.52 490 720 0.00 0.00 0.0000 0.0000
0.016 2 10.066938 -0.812739 2.047431 6.652832 5.790710 -4.264832 14.29 14.29 4.0 3.9 0.722 0.912 9.1991 9.3908 0.0020 -0.0000 0.000000 -1.330467 11.74 510 740 0.00 0.00 0.0000 0.0000
0.017 2 10.306684 -0.134258 -3.284521 6.332397 2.494812 -4.226685 15.13 15.13 4.1 3.4 0.811 0.741 9.9432 11.3636 0.0024 -0.0000 0.000000 -1.336222 11.74 490 720 0.00 0.00 0.0000 0.0000
0.018 2 10.548828 0.098296 4.214736 6.126404 3.997803 -4.196167 15.97 15.97 4.2 3.6 0.855 0.716 10.7323 11.9670 0.0028 -0.0000 0.000000 -1.340102 11.74 490 710 0.00 0.00 0.0000 0.0000
0.019 2 9.465176 -0.127065 5.758701 6.011963 5.737305 -4.173279 16.81 16.81 4.4 3.7 0.874 0.709 11.4599 12.7573 0.0032 -0.0000 0.000000 -1.335411 11.74 490 720 0.00 0.00 0.0000 0.0000
0.020 2 9.968642 0.333247 2.380679 5.821228 5.798340 -4.035950 17.65 17.65 4.9 4.5 0.906 0.671 11.4599 12.1826 0.0034 -0.0000 0.002595 -1.332239 11.74 490 750 0.00 0.00 0.0000 0.0000
0.021 2 10.757407 -0.225361 1.323398 6.347656 4.539490 -3.837585 18.49 18.49 5.0 4.6 0.995 0.671 12.4061 13.0026 0.0040 -0.0000 0.000000 -1.333341 11.63 510 770 0.00 0.00 0.0000 0.0000
0.022 2 10.217978 0.182207 1.390527 6.835938 3.707886 -3.936768 19.33 19.33 4.9 4.9 1.128 0.804 13.5227 13.5227 0.0044 -0.0000 0.000000 -1.335421 11.63 490 710 0.00 0.00 0.0000 0.0000
0.023 2 10.153247 -0.033564 2.356704 7.392883 3.822327 -3.929138 20.17 20.17 5.0 4.8 1.166 0.842 14.3858 14.6986 0.0048 -0.0000 0.000000 -1.336419 11.63 490 720 0.00 0.00 0.0000 0.0000
0.024 2 9.975835 -0.692866 2.433423 7.614136 4.394531 -3.547668 21.01 21.01 5.2 5.2 1.064 0.899 15.0252 14.8601 0.0052 -0.0000 0.000000 -1.336362 11.63 490 720 0.00 0.00 0.0000 0.0000
0.025 2 9.436406 0.887061 2.455000 6.645203 4.936218 -3.746033 21.85 21.85 5.4 5.2 1.026 0.899 15.7241 15.9091 0.0056 -0.0000 0.000000 -1.336035 11.63 490 720 0.00 0.00 0.0000 0.0000
0.026 2 10.546431 -0.378799 3.898271 6.835938 5.615234 -3.349304 22.69 22.69 5.5 5.1 1.039 0.931 16.4911 17.1173 0.0062 0.0000 0.002595 -1.334566 11.60 510 770 0.00 0.00 0.0000 0.0000
0.027 2 10.642329 -0.549019 1.853237 6.805420 4.783630 -3.051758 23.53 23.53 5.3 5.0 1.052 0.963 17.7930 18.2739 0.0068 0.0000 0.000000 -1.333942 11.60 490 750 0.00 0.00 0.0000 0.0000
0.028 2 10.496083 0.963779 0.469902 7.217407 3.669739 -3.318787 24.37 24.37 5.5 5.3 1.172 0.976 18.5242 18.7815 0.0072 0.0000 0.000000 -1.336409 11.60 490 720 0.00 0.00 0.0000 0.0000
0.029 2 10.035771 -1.282642 3.970195 8.850098 5.226135 -3.677368 25.21 25.21 5.1 5.1 1.210 0.957 20.1831 20.1831 0.0080 0.0000 0.000000 -1.336800 11.60 490 690 0.00 0.00 0.0000 0.0000
0.030 2 8.717168 0.743213 3.207803 8.300781 5.706787 -4.112244 26.05 26.05 5.5 5.3 1.052 0.950 20.4889 20.8041 0.0086 0.0000 0.002595 -1.334118 11.60 490 730 0.00 0.00 0.0000 0.0000
0.031 2 10.512866 -0.323657 2.474180 7.820129 5.813599 -3.501892 26.89 26.89 5.5 5.8 0.887 0.861 21.4646 20.8041 0.0093 0.0000 0.000000 -1.332926 11.60 510 740 0.00 0.00 0.0000 0.0000
0.032 2 10.788574 0.932612 2.642002 5.996704 5.012512 -3.356934 27.73 27.73 5.9 5.6 0.899 0.925 21.8108 22.1684 0.0099 0.0000 0.002595 -1.332876 11.60 490 720 0.00 0.00 0.0000 0.0000
0.033 2 10.071733 0.182207 -0.158232 5.996704 3.013611 -3.326416 28.57 28.57 6.0 5.8 0.969 0.938 22.5378 22.9198 0.0105 0.0000 0.000000 -1.335295 11.60 490 730 0.00 0.00 0.0000 0.0000
0.034 2 10.340249 -0.987754 3.195815 7.049561 4.646301 -3.372192 29.41 29.41 5.7 5.6 1.064 0.957 24.1477 24.1477 0.0113 0.0000 0.000000 -1.337080 11.60 490 690 0.00 0.00 0.0000 0.0000
0.035 2 9.966245 0.582583 4.334609 8.361816 6.248474 -4.013062 30.25 30.25 6.0 5.7 0.918 0.874 24.5867 25.0420 0.0121 0.0000 0.000000 -1.334584 11.60 490 700 0.00 0.00 0.0000 0.0000
0.036 2 10.052553 -1.172358 1.702197 9.819031 5.569458 -3.715515 31.09 31.09 6.3 5.7 1.064 0.899 25.0420 26.0052 0.0129 0.0000 0.000000 -1.333437 11.56 510 720 0.00 0.00 0.0000 0.0000
0.037 2 9.009658 1.376143 1.630273 7.690430 4.692078 -3.623962 31.93 31.93 6.3 6.0 1.102 0.918 26.0052 26.5151 0.0137 0.0000 0.000000 -1.334615 11.56 490 690 0.00 0.00 0.0000 0.0000
0.038 2 11.018730 0.774380 2.783452 6.935120 4.791260 -3.677368 32.77 32.77 6.3 5.9 1.185 0.931 27.0454 27.5973 0.0145 0.0000 0.000000 -1.334988 11.56 490 690 0.00 0.00 0.0000 0.0000
0.039 2 11.375952 -2.164907 2.004277 7.232666 4.364014 -3.585815 33.61 33.61 6.3 6.5 1.058 0.950 28.1723 27.5973 0.0153 0.0000 0.000000 -1.335401 11.56 490 700 0.00 0.00 0.0000 0.0000
0.040 2 10.397788 0.776777 1.409707 7.606506 3.684998 -3.440857 34.45 34.45 7.1 6.0 1.052 0.868 27.5973 29.3972 0.0161 0.0000 0.000000 -1.336932 11.56 490 700 0.00 0.00 0.0000 0.0000
0.041 2 9.484355 -0.637725 4.248301 8.430481 4.760742 -3.829956 35.29 35.29 6.7 6.9 1.077 0.899 29.3972 28.7717 0.0171 0.0000 0.002595 -1.335986 11.52 510 750 0.00 0.00 0.0000 0.0000
0.042 2 9.834385 0.057539 4.782934 10.787964 6.813049 -3.623962 36.13 36.13 6.9 6.4 1.147 0.931 30.0504 30.7334 0.0179 0.0000 0.002595 -1.331884 11.52 490 730 0.00 0.00 0.0000 0.0000
0.043 2 9.477162 -0.203784 1.064473 10.192871 6.484985 -3.623962 36.97 36.97 6.7 6.6 1.039 0.931 31.4481 31.4481 0.0189 0.0000 0.000000 -1.330911 11.52 490 720 0.00 0.00 0.0000 0.0000
0.044 2 10.515264 1.275449 0.383594 8.544922 3.921509 -4.486084 37.82 37.82 6.8 6.7 1.102 0.982 32.1969 32.1969 0.0199 0.0000 0.002595 -1.334102 11.52 490 720 0.00 0.00 0.0000 0.0000
0.045 2 12.195884 -2.164907 2.256011 8.056641 2.380371 -3.501892 38.66 38.66 6.9 6.8 1.197 1.007 32.9822 32.9822 0.0207 0.0000 0.002595 -1.336563 11.52 490 720 0.00 0.00 0.0000 0.0000
0.046 2 10.241953 1.232295 3.943823 6.896973 3.311157 -2.349854 39.50 39.50 7.0 6.9 1.064 0.963 33.8067 33.8067 0.0217 0.0000 0.000000 -1.335702 11.56 510 740 0.00 0.00 0.0000 0.0000
0.047 2 8.124995 1.608696 4.646279 6.965637 5.805969 -3.036499 40.34 40.34 7.6 6.5 1.090 0.944 33.8067 35.5860 0.0227 0.0000 0.002595 -1.331496 11.56 490 720 0.00 0.00 0.0000 0.0000
0.048 2 10.834126 -0.978164 3.313291 9.521484 6.164551 -4.508972 41.18 41.18 7.2 7.0 1.185 0.976 35.5860 35.5860 0.0239 0.0000 0.002595 -1.328049 11.56 490 720 0.00 0.00 0.0000 0.0000
0.049 2 10.870088 -2.721118 -1.939546 11.848450 3.944397 -4.203796 42.02 42.02 7.2 6.5 1.109 0.988 36.5478 37.5630 0.0249 0.0000 0.000000 -1.331578 11.56 490 730 0.00 0.00 0.0000 0.0000
0.050 2 7.990737 3.282124 3.531460 8.544922 6.019592 -3.547668 42.86 42.86 7.2 6.4 1.064 0.925 37.5630 38.6363 0.0259 0.0000 0.002595 -1.333857 11.56 490 730 0.00 0.00 0.0000 0.0000
0.051 2 10.743022 0.757598 5.523750 6.568909 5.805969 -2.128601 43.70 43.70 7.7 7.0 1.128 0.880 37.5630 38.6363 0.0272 0.0000 0.002595 -1.329624 11.50 510 750 0.00 0.00 0.0000 0.0000
0.052 2 12.536323 -0.719238 -0.611353 7.362366 3.067017 -1.579285 44.54 44.54 7.7 8.6 1.045 0.855 38.6363 36.5478 0.0282 0.0000 0.000000 -1.330103 11.50 490 730 0.00 0.00 0.0000 0.0000
0.053 2 8.769912 -1.872417 1.126807 8.804321 4.547119 -1.991272 45.38 45.38 7.6 7.5 1.052 0.957 39.7726 39.7726 0.0294 0.0000 0.000000 -1.334021 11.50 490 700 0.00 0.00 0.0000 0.0000
0.054 2 7.983545 2.390269 5.156939 7.057190 6.454468 -4.447937 46.22 46.22 7.5 7.4 1.134 1.109 40.9779 40.9779 0.0306 0.0000 0.000000 -1.331671 11.50 490 700 0.00 0.00 0.0000 0.0000
0.055 2 11.958535 -1.747749 4.648676 11.596680 6.553650 -3.631592 47.06 47.06 8.1 7.9 1.071 0.995 40.9779 40.9779 0.0318 0.0000 0.000000 -1.326944 11.50 490 700 0.00 0.00 0.0000 0.0000
0.056 2 9.016850 -1.006934 -1.222705 9.872437 5.981445 -3.150940 47.90 47.90 7.9 7.8 1.121 0.995 42.2584 42.2584 0.0332 0.0000 0.002595 -1.329328 11.39 510 730 0.00 0.00 0.0000 0.0000
0.057 2 10.860497 3.553037 1.277847 8.232117 3.829956 -4.058838 48.74 48.74 7.7 7.6 1.216 1.121 43.6216 43.6216 0.0344 0.0000 0.002595 -1.334200 11.39 490 720 0.00 0.00 0.0000 0.0000
0.058 2 11.965727 -3.478716 1.328193 9.635925 2.502441 -5.096436 49.58 49.58 8.2 8.1 1.121 0.995 43.6216 43.6216 0.0356 0.0000 0.002595 -1.336576 11.39 490 720 0.00 0.00 0.0000 0.0000
0.059 2 6.705698 -0.990151 3.375625 9.719849 3.990173 -3.997803 50.00 50.00 7.6 7.6 1.159 1.001 45.0756 45.0756 0.0370 0.0000 0.000000 -1.335445 11.39 490 730 0.00 0.00 0.0000 0.0000
0.060 2 10.030976 2.536514 6.199834 6.179810 8.056641 -3.707886 50.00 50.00 6.8 6.8 1.045 0.957 46.6300 46.6300 0.0382 0.0000 0.000000 -1.329903 11.39 490 700 0.00 0.00 0.0000 0.0000
0.061 2 14.761167 -1.601504 2.200869 7.858276 5.683899 -3.181458 50.00 50.00 6.8 6.8 1.052 0.918 46.6300 46.6300 0.0396 0.0000 0.002595 -1.327608 11.55 510 740 0.00 0.00 0.0000 0.0000
0.062 2 10.493686 -1.997085 -1.148384 11.352539 2.410889 -3.997803 50.00 50.00 5.9 5.9 0.874 0.855 48.2953 48.2953 0.0410 0.0000 0.000000 -1.331967 11.55 490 720 0.00 0.00 0.0000 0.0000
0.063 2 8.664424 1.213115 3.080737 11.878967 2.075195 -4.707336 50.00 50.00 5.9 5.9 0.785 0.722 48.2953 48.2953 0.0424 0.0000 0.002595 -1.334354 11.55 490 720 0.00 0.00 0.0000 0.0000
0.064 2 10.659111 -0.498672 8.988081 11.856079 7.476807 -3.730774 50.00 50.00 5.9 5.9 0.716 0.633 48.2953 48.2953 0.0439 0.0000 0.000000 -1.328635 11.55 490 720 0.00 0.00 0.0000 0.0000
0.065 2 7.566387 1.141191 3.327676 7.530212 9.605408 -2.334595 50.00 50.00 5.9 5.9 0.576 0.526 48.2953 48.2953 0.0453 0.0000 0.002595 -1.322244 11.55 490 720 0.00 0.00 0.0000 0.0000
0.066 2 11.093051 2.613232 -2.848183 5.462646 4.936218 -1.731873 50.00 50.00 5.0 5.0 0.500 0.475 50.0841 50.0841 0.0467 0.0000 0.000000 -1.325426 11.74 510 750 0.00 0.00 0.0000 0.0000
0.067 2 12.006484 -3.917451 -0.314067 7.049561 3.654480 -1.686096 50.00 50.00 5.0 5.0 0.424 0.431 50.0841 50.0841 0.0481 0.0000 0.002595 -1.332958 11.74 490 720 0.00 0.00 0.0000 0.0000
0.068 2 8.731552 2.512539 1.980303 7.736206 3.036499 -3.173828 50.00 50.00 5.0 5.0 0.329 0.317 50.0841 50.0841 0.0495 0.0000 0.000000 -1.335660 11.74 490 720 0.00 0.00 0.0000 0.0000
0.069 2 9.045620 -2.308755 5.809048 10.192871 6.973267 -3.395081 50.00 50.00 5.0 5.0 0.285 0.279 50.0841 50.0841 0.0509 0.0001 0.002595 -1.332370 11.74 490 720 0.00 0.00 0.0000 0.0000
0.070 2 9.400444 1.421694 4.811704 8.560181 8.888245 -3.829956 50.00 50.00 4.9 4.9 0.253 0.272 50.0841 50.0841 0.0523 0.0001 0.000000 -1.326618 11.74 490 730 0.00 0.00 0.0000 0.0000
0.071 2 9.412432 -0.450723 -2.097778 9.010315 5.828857 -4.302979 50.00 50.00 4.9 4.9 0.215 0.253 50.0841 50.0841 0.0537 0.0001 0.002595 -1.328813 11.77 510 750 0.00 0.00 0.0000 0.0000
0.072 2 11.622890 -1.793301 1.136396 9.651184 4.898071 -4.249573 50.00 50.00 5.9 4.9 0.177 0.222 48.2953 50.0841 0.0549 0.0001 0.002595 -1.334718 11.77 490 720 0.00 0.00 0.0000 0.0000
0.073 2 12.531528 1.227500 5.854599 9.414673 4.180908 -4.272461 50.00 50.00 5.0 4.9 0.260 0.196 50.0841 50.0841 0.0565 0.0001 0.002595 -1.334022 11.77 490 730 0.00 0.00 0.0000 0.0000
0.074 2 10.973178 -0.409966 0.707251 9.544373 1.960754 -4.379272 50.00 50.00 5.0 4.9 0.348 0.253 50.0841 50.0841 0.0577 0.0001 0.002595 -1.333693 11.77 490 720 0.00 0.00 0.0000 0.0000
0.075 2 9.175083 -1.258667 3.639346 9.994507 3.677368 -3.990173 50.00 50.00 5.0 4.9 0.323 0.215 50.0841 50.0841 0.0593 0.0001 0.002595 -1.333963 11.77 490 720 0.00 0.00 0.0000 0.0000
0.076 2 8.971298 -0.335645 6.055986 10.208130 7.942200 -3.532410 50.00 50.00 5.0 4.9 0.247 0.203 50.0841 50.0841 0.0607 0.0001 0.005191 -1.328934 11.83 510 740 0.00 0.00 0.0000 0.0000
0.077 2 10.369019 -0.577788 1.414502 10.177612 6.805420 -3.417969 50.00 50.00 4.9 4.9 0.228 0.209 50.0841 50.0841 0.0622 0.0001 0.002595 -1.326375 11.83 490 730 0.00 0.00 0.0000 0.0000
0.078 2 11.030718 0.450723 1.445669 8.804321 5.020142 -3.051758 50.00 50.00 4.9 4.9 0.165 0.184 50.0841 50.0841 0.0634 0.0001 0.002595 -1.328480 11.83 490 720 0.00 0.00 0.0000 0.0000
0.079 2 10.776587 0.143848 1.215513 7.759094 3.181458 -2.479553 50.00 50.00 4.9 3.9 0.190 0.215 50.0841 52.0104 0.0650 0.0001 0.002595 -1.330805 11.83 490 720 0.00 0.00 0.0000 0.0000
0.080 2 9.354893 0.515454 1.225103 6.843567 2.960205 -2.922058 50.00 50.00 4.9 4.9 0.184 0.171 50.0841 50.0841 0.0664 0.0001 0.005191 -1.333103 11.83 490 730 0.00 0.00 0.0000 0.0000
0.081 2 8.158559 -0.043154 5.792265 8.064270 6.607056 -3.509521 50.00 50.00 4.9 4.9 0.196 0.133 50.0841 50.0841 0.0678 0.0001 0.002595 -1.330325 11.85 510 750 0.00 0.00 0.0000 0.0000
0.082 2 9.983027 0.342837 3.392407 7.781982 8.094788 -3.417969 50.00 50.00 4.9 4.9 0.222 0.139 50.0841 50.0841 0.0692 0.0001 0.005191 -1.325603 11.85 490 730 0.00 0.00 0.0000 0.0000
0.083 2 11.049897 1.244282 -1.220308 6.591797 5.287170 -3.570557 50.00 50.00 4.9 4.9 0.253 0.215 50.0841 50.0841 0.0704 0.0001 0.005191 -1.328188 11.85 490 730 0.00 0.00 0.0000 0.0000
0.084 2 10.452929 -0.954189 2.076201 7.339478 4.287720 -3.982544 50.00 50.00 4.9 4.9 0.260 0.203 50.0841 50.0841 0.0720 0.0001 0.005191 -1.332057 11.85 490 720 0.00 0.00 0.0000 0.0000
0.085 2 10.462520 -0.563403 4.332212 8.491516 5.050659 -3.959656 50.00 50.00 4.9 4.9 0.260 0.222 50.0841 50.0841 0.0732 0.0001 0.005191 -1.330876 11.85 490 730 0.00 0.00 0.0000 0.0000
0.086 2 10.697471 -0.280503 1.750146 8.987427 5.325317 -3.875732 50.00 50.00 5.9 5.9 0.241 0.196 48.2953 48.2953 0.0748 0.0001 0.005191 -1.330044 11.90 510 750 0.00 0.00 0.0000 0.0000
0.087 2 9.865551 -0.879868 1.340181 9.628296 5.249023 -3.868103 50.00 50.00 5.9 4.9 0.234 0.253 48.2953 50.0841 0.0760 0.0001 0.005191 -1.331778 11.90 490 720 0.00 0.00 0.0000 0.0000
0.088 2 9.877539 -1.481631 3.337265 10.040283 5.538940 -3.646851 50.00 50.00 5.9 4.9 0.317 0.424 48.2953 50.0841 0.0776 0.0001 0.005191 -1.331855 11.90 490 720 0.00 0.00 0.0000 0.0000
0.089 2 10.882075 -0.414761 3.392407 9.857178 5.630493 -3.562927 50.00 50.00 5.9 5.9 0.393 0.272 48.2953 48.2953 0.0789 0.0002 0.005191 -1.330272 11.90 490 720 0.00 0.00 0.0000 0.0000
0.090 2 10.822139 -0.683276 1.975508 9.849548 5.172729 -3.387451 50.00 50.00 5.9 5.9 0.450 0.272 48.2953 48.2953 0.0803 0.0002 0.007786 -1.330161 11.90 490 730 0.00 0.00 0.0000 0.0000
0.091 2 10.349838 0.038359 2.200869 9.094238 4.753113 -2.807617 50.00 50.00 5.9 5.0 0.488 0.329 48.2953 50.0841 0.0817 0.0002 0.005191 -1.330978 11.75 510 750 0.00 0.00 0.0000 0.0000
0.092 2 9.570663 0.781572 3.581806 8.071899 5.104065 -2.922058 50.00 50.00 5.9 5.0 0.513 0.336 48.2953 50.0841 0.0831 0.0002 0.007786 -1.330022 11.75 490 730 0.00 0.00 0.0000 0.0000
0.093 2 9.338110 0.443530 4.473662 7.614136 7.041931 -2.868652 50.00 50.00 5.9 5.0 0.519 0.279 48.2953 50.0841 0.0845 0.0002 0.005191 -1.326715 11.75 490 730 0.00 0.00 0.0000 0.0000
0.094 2 9.891924 0.472300 2.486167 7.339478 7.888794 -3.280640 50.00 50.00 5.9 5.9 0.488 0.260 48.2953 48.2953 0.0859 0.0002 0.007786 -1.324558 11.75 490 720 0.00 0.00 0.0000 0.0000
0.095 2 10.088515 0.731226 0.222964 7.247925 6.538391 -3.578186 50.00 50.00 5.9 5.0 0.424 0.285 48.2953 50.0841 0.0873 0.0002 0.005191 -1.326652 11.75 490 730 0.00 0.00 0.0000 0.0000
0.096 2 9.959052 0.664097 0.980561 7.064819 5.622864 -4.295349 50.00 50.00 5.9 5.0 0.424 0.279 48.2953 50.0841 0.0887 0.0002 0.007786 -1.330191 11.79 510 750 0.00 0.00 0.0000 0.0000
0.097 2 9.695332 0.004795 2.522129 7.202148 6.462097 -3.997803 50.00 50.00 5.0 5.0 0.431 0.266 50.0841 50.0841 0.0901 0.0002 0.005191 -1.331360 11.79 490 730 0.00 0.00 0.0000 0.0000
0.098 2 9.882334 -0.448325 2.339922 7.179260 7.308960 -3.753662 50.00 50.00 5.0 5.0 0.361 0.215 50.0841 50.0841 0.0915 0.0002 0.007786 -1.331160 11.79 490 730 0.00 0.00 0.0000 0.0000
0.099 2 10.520059 -0.896650 0.839111 8.193970 6.904602 -4.089355 50.00 50.00 5.0 5.9 0.247 0.228 50.0841 48.2953 0.0929 0.0002 0.005191 -1.332692 11.79 490 730 0.00 0.00 0.0000 0.0000
0.100 2 10.141259 -0.946997 1.304219 9.216309 5.897522 -4.264832 50.00 50.00 5.9 5.0 0.253 0.241 48.2953 50.0841 0.0945 0.0003 0.005191 -1.335242 11.79 490 720 0.00 0.00 0.0000 0.0000
0.101 2 10.817344 -0.525044 3.943823 9.643555 5.592346 -4.302979 50.00 50.00 5.0 5.0 0.279 0.298 50.0841 50.0841 0.0959 0.0003 0.007786 -1.335079 11.74 510 750 0.00 0.00 0.0000 0.0000
0.102 2 10.788574 -1.090845 4.420918 9.521484 6.278992 -4.333496 50.00 50.00 5.0 5.0 0.348 0.260 50.0841 50.0841 0.0974 0.0003 0.005191 -1.332332 11.74 490 730 0.00 0.00 0.0000 0.0000
0.103 2 10.711855 0.203784 1.716582 9.117126 5.371094 -3.913879 50.00 50.00 5.0 5.0 0.260 0.247 50.0841 50.0841 0.0988 0.0003 0.007786 -1.331530 11.74 490 730 0.00 0.00 0.0000 0.0000
0.104 2 10.357031 -0.599365 2.083394 9.109497 5.020142 -2.769470 50.00 50.00 5.9 4.9 0.215 0.215 48.2953 50.0841 0.1002 0.0003 0.005191 -1.332639 11.74 490 730 0.00 0.00 0.0000 0.0000
0.105 2 9.757666 0.163027 4.080478 8.789062 5.645752 -2.693176 50.00 50.00 5.0 4.9 0.304 0.228 50.0841 50.0841 0.1016 0.0003 0.007786 -1.331376 11.74 490 730 0.00 0.00 0.0000 0.0000
0.106 2 10.071733 0.474697 4.250698 8.544922 6.927490 -2.960205 50.00 50.00 5.0 3.9 0.310 0.228 50.0841 52.0104 0.1030 0.0003 0.005191 -1.328132 11.79 510 760 0.00 0.00 0.0000 0.0000
0.107 2 9.529907 0.616147 2.608438 8.056641 7.026672 -3.280640 50.00 50.00 5.0 4.9 0.304 0.139 50.0841 50.0841 0.1044 0.0003 0.007786 -1.326218 11.79 490 730 0.00 0.00 0.0000 0.0000
0.108 2 9.580254 0.374004 0.222964 7.690430 5.981445 -3.684998 50.00 50.00 5.0 5.9 0.310 0.158 50.0841 48.2953 0.1058 0.0003 0.005191 -1.328073 11.79 490 730 0.00 0.00 0.0000 0.0000
0.109 2 10.126875 0.376401 1.018921 7.019043 5.500793 -4.142761 50.00 50.00 4.9 4.9 0.272 0.203 50.0841 50.0841 0.1072 0.0003 0.007786 -1.331556 11.79 490 730 0.00 0.00 0.0000 0.0000
0.110 2 10.404980 0.887061 2.507744 6.507874 6.103516 -4.226685 50.00 50.00 4.9 4.9 0.234 0.279 50.0841 50.0841 0.1086 0.0003 0.005191 -1.332859 11.79 490 730 0.00 0.00 0.0000 0.0000
0.111 2 9.987822 0.323657 2.500552 6.874084 5.775452 -4.371643 50.00 50.00 4.9 4.9 0.266 0.266 50.0841 50.0841 0.1100 0.0004 0.007786 -1.332697 11.82 510 750 0.00 0.00 0.0000 0.0000
0.112 2 9.760063 -0.580186 1.697402 7.904053 5.493164 -4.608154 50.00 50.00 4.9 5.9 0.222 0.222 50.0841 48.2953 0.1114 0.0004 0.005191 -1.333181 11.82 490 730 0.00 0.00 0.0000 0.0000
0.113 2 10.464916 -0.807944 2.347114 8.926392 5.851746 -4.837036 50.00 50.00 4.9 5.9 0.190 0.272 50.0841 48.2953 0.1128 0.0004 0.007786 -1.333899 11.82 490 730 0.00 0.00 0.0000 0.0000
0.114 2 11.114629 -1.683017 2.469385 9.300232 5.378723 -4.051208 50.00 50.00 5.9 5.0 0.165 0.329 48.2953 50.0841 0.1145 0.0004 0.007786 -1.334144 11.82 490 720 0.00 0.00 0.0000 0.0000
0.115 2 10.771791 -0.234951 1.606299 8.659363 3.875732 -3.654480 50.00 50.00 5.0 5.0 0.241 0.329 50.0841 50.0841 0.1157 0.0004 0.007786 -1.335119 11.82 490 720 0.00 0.00 0.0000 0.0000
0.116 2 10.896460 -1.021318 3.445151 8.857727 3.906250 -2.929688 50.00 50.00 5.0 5.0 0.361 0.298 50.0841 50.0841 0.1173 0.0004 0.007786 -1.335221 11.82 510 740 0.00 0.00 0.0000 0.0000
0.117 2 10.464916 -1.205923 4.711010 9.483337 5.561829 -2.380371 50.00 50.00 5.0 5.0 0.374 0.247 50.0841 50.0841 0.1185 0.0004 0.007786 -1.332584 11.82 490 730 0.00 0.00 0.0000 0.0000
0.118 2 9.829590 0.383594 2.558091 9.498596 5.744934 -2.983093 50.00 50.00 5.0 4.9 0.336 0.215 50.0841 50.0841 0.1199 0.0004 0.010382 -1.330495 11.82 490 720 0.00 0.00 0.0000 0.0000
0.119 2 10.153247 -0.026372 2.586860 8.934021 5.325317 -3.128052 50.00 50.00 4.9 5.9 0.253 0.234 50.0841 48.2953 0.1213 0.0004 0.007786 -1.330167 11.82 490 730 0.00 0.00 0.0000 0.0000
0.120 2 9.875141 0.457915 3.337265 8.132935 5.760193 -2.792358 50.00 50.00 4.9 5.0 0.241 0.241 50.0841 50.0841 0.1227 0.0005 0.010382 -1.329139 11.82 490 720 0.00 0.00 0.0000 0.0000
0.121 2 9.939873 0.815137 2.349512 7.522583 6.095886 -2.243042 50.00 50.00 4.9 5.0 0.222 0.272 50.0841 50.0841 0.1241 0.0005 0.007786 -1.328297 11.83 510 750 0.00 0.00 0.0000 0.0000
0.122 2 9.860757 0.733623 1.553555 6.843567 5.668640 -2.845764 50.00 50.00 4.9 5.0 0.165 0.260 50.0841 50.0841 0.1255 0.0005 0.010382 -1.329152 11.83 490 730 0.00 0.00 0.0000 0.0000
0.123 2 9.326122 1.006934 0.923022 6.561279 5.439758 -3.417969 50.00 50.00 7.6 5.0 0.196 0.196 45.0756 50.0841 0.1269 0.0005 0.007786 -1.331317 11.83 490 730 0.00 0.00 0.0000 0.0000
0.124 2 9.079185 0.489082 1.929956 5.805969 6.286621 -3.265381 50.00 50.00 5.0 4.9 0.329 0.253 50.0841 50.0841 0.1283 0.0005 0.010382 -1.332907 11.83 490 730 0.00 0.00 0.0000 0.0000
0.125 2 10.138862 -0.316465 2.378281 6.477356 6.752014 -3.204346 50.00 50.00 5.0 6.8 0.494 0.209 50.0841 46.6300 0.1297 0.0005 0.012977 -1.333150 11.83 490 730 0.00 0.00 0.0000 0.0000
0.126 2 10.843716 -1.014126 0.517852 7.453918 5.218506 -3.608704 50.00 50.00 5.0 3.9 0.418 0.304 50.0841 52.0104 0.1311 0.0005 0.010382 -1.334998 11.75 510 750 0.00 0.00 0.0000 0.0000
0.127 2 10.822139 -1.321001 1.488823 9.101868 3.700256 -3.540039 50.00 50.00 5.9 4.9 0.310 0.323 48.2953 50.0841 0.1326 0.0006 0.012977 -1.337764 11.75 490 730 0.00 0.00 0.0000 0.0000
0.128 2 10.735829 -1.165166 4.871641 9.231567 4.356384 -4.028320 50.00 50.00 5.0 4.9 0.279 0.228 50.0841 50.0841 0.1340 0.0006 0.010382 -1.336738 11.75 490 730 0.00 0.00 0.0000 0.0000
0.129 2 10.294697 -0.244541 4.890820 8.522034 5.607605 -3.868103 50.00 50.00 5.0 4.9 0.279 0.241 50.0841 50.0841 0.1354 0.0006 0.012977 -1.332677 11.75 490 730 0.00 0.00 0.0000 0.0000
0.130 2 10.311480 -1.196333 2.265600 8.476257 5.813599 -3.036499 50.00 50.00 5.0 4.9 0.247 0.203 50.0841 50.0841 0.1368 0.0006 0.010382 -1.330761 11.75 490 730 0.00 0.00 0.0000 0.0000
0.131 2 10.584789 0.045552 1.378540 8.483887 4.882812 -2.990723 50.00 50.00 5.0 4.9 0.234 0.196 50.0841 50.0841 0.1382 0.0006 0.012977 -1.331998 11.83 510 750 0.00 0.00 0.0000 0.0000
0.132 2 10.575200 0.141450 2.649194 9.063721 4.211426 -2.639771 50.00 50.00 4.9 4.9 0.298 0.171 50.0841 50.0841 0.1396 0.0006 0.010382 -1.332935 11.83 490 730 0.00 0.00 0.0000 0.0000
0.133 2 9.831987 0.194194 4.121235 9.353638 5.432129 -2.143860 50.00 50.00 4.9 3.9 0.298 0.234 50.0841 52.0104 0.1410 0.0007 0.012977 -1.331202 11.83 490 730 0.00 0.00 0.0000 0.0000
0.134 2 9.374072 1.208320 3.502690 8.941650 6.469727 -2.433777 50.00 50.00 4.9 4.9 0.234 0.139 50.0841 50.0841 0.1426 0.0007 0.012977 -1.328373 11.83 490 720 0.00 0.00 0.0000 0.0000
0.135 2 9.750473 -0.234951 1.805288 8.583069 6.683350 -2.197266 50.00 50.00 4.9 4.9 0.234 0.139 50.0841 50.0841 0.1438 0.0007 0.012977 -1.327706 11.83 490 720 0.00 0.00 0.0000 0.0000
0.136 2 9.414829 1.378540 0.755200 7.011414 5.989075 -2.479553 50.00 50.00 4.9 4.9 0.203 0.133 50.0841 50.0841 0.1454 0.0007 0.012977 -1.329805 11.87 510 740 0.00 0.00 0.0000 0.0000
0.137 2 9.884731 0.374004 1.908379 6.561279 5.889893 -2.784729 50.00 50.00 4.9 4.9 0.133 0.203 50.0841 50.0841 0.1466 0.0007 0.012977 -1.331794 11.87 490 720 0.00 0.00 0.0000 0.0000
0.138 2 10.009399 -0.417158 2.924902 6.660461 6.095886 -3.166199 50.00 50.00 6.8 4.9 0.165 0.222 46.6300 50.0841 0.1482 0.0007 0.012977 -1.331720 11.87 490 720 0.00 0.00 0.0000 0.0000
0.139 2 9.975835 -0.098296 1.311411 6.874084 5.691528 -2.761841 50.00 50.00 5.0 4.9 0.304 0.222 50.0841 50.0841 0.1495 0.0008 0.012977 -1.332243 11.87 490 720 0.00 0.00 0.0000 0.0000
0.140 2 10.520059 -0.477095 1.510400 7.316589 5.050659 -2.784729 50.00 50.00 5.9 5.9 0.475 0.203 48.2953 48.2953 0.1511 0.0008 0.012977 -1.334168 11.87 490 720 0.00 0.00 0.0000 0.0000
0.141 2 10.774189 -1.452861 2.785850 8.323669 5.424500 -2.616882 50.00 50.00 5.9 4.9 0.361 0.222 48.2953 50.0841 0.1523 0.0008 0.012977 -1.334846 11.75 510 750 0.00 0.00 0.0000 0.0000
0.142 2 10.277915 -0.539429 2.639604 8.483887 5.287170 -2.662659 50.00 50.00 5.9 4.9 0.386 0.298 48.2953 50.0841 0.1537 0.0008 0.015573 -1.334431 11.75 490 730 0.00 0.00 0.0000 0.0000
0.143 2 10.656713 -0.992549 3.246162 8.796692 5.325317 -2.372742 50.00 50.00 5.9 4.9 0.412 0.272 48.2953 50.0841 0.1551 0.0008 0.012977 -1.333604 11.75 490 730 0.00 0.00 0.0000 0.0000
0.144 2 10.496083 -0.625737 3.639346 8.575439 5.645752 -1.731873 50.00 50.00 5.9 4.9 0.488 0.234 48.2953 50.0841 0.1565 0.0009 0.015573 -1.331973 11.75 490 730 0.00 0.00 0.0000 0.0000
0.145 2 10.474506 0.105488 2.335127 8.583069 5.409241 -1.403809 50.00 50.00 5.0 4.9 0.532 0.209 50.0841 50.0841 0.1579 0.0009 0.012977 -1.331131 11.75 490 730 0.00 0.00 0.0000 0.0000
0.146 2 10.208388 -0.227759 3.068750 8.575439 5.607605 -1.770020 50.00 50.00 5.0 5.9 0.418 0.215 50.0841 48.2953 0.1595 0.0009 0.012977 -1.330718 11.79 510 750 0.00 0.00 0.0000 0.0000
0.147 2 9.822397 0.700059 3.121494 8.163452 5.699158 -1.991272 50.00 50.00 5.0 3.9 0.393 0.247 50.0841 52.0104 0.1607 0.0009 0.012977 -1.329436 11.79 490 730 0.00 0.00 0.0000 0.0000
0.148 2 9.611421 0.038359 2.483769 8.087158 6.134033 -1.609802 50.00 50.00 5.0 4.9 0.323 0.253 50.0841 50.0841 0.1621 0.0009 0.015573 -1.328563 11.79 490 730 0.00 0.00 0.0000 0.0000
0.149 2 9.517920 0.918227 2.100176 7.431030 6.355286 -1.724243 50.00 50.00 4.9 5.9 0.272 0.196 50.0841 48.2953 0.1635 0.0010 0.012977 -1.328598 11.79 490 730 0.00 0.00 0.0000 0.0000
0.150 2 10.191607 0.402773 1.491221 7.621765 5.821228 -1.853943 50.00 50.00 4.9 4.9 0.228 0.203 50.0841 50.0841 0.1651 0.0010 0.012977 -1.329700 11.79 490 720 0.00 0.00 0.0000 0.0000
0.151 2 9.551484 -0.481890 1.217910 7.202148 5.500793 -3.120422 50.00 50.00 4.9 4.9 0.171 0.298 50.0841 50.0841 0.1665 0.0010 0.015573 -1.331682 11.83 510 750 0.00 0.00 0.0000 0.0000
0.152 2 10.146054 1.150781 1.944341 6.118774 5.477905 -3.440857 50.00 50.00 4.9 4.9 0.165 0.285 50.0841 50.0841 0.1678 0.0010 0.015573 -1.333191 11.83 490 720 0.00 0.00 0.0000 0.0000
0.153 2 10.500878 -1.714185 2.493359 6.744385 5.805969 -2.899170 50.00 50.00 4.9 4.9 0.184 0.234 50.0841 50.0841 0.1694 0.0010 0.015573 -1.333616 11.83 490 720 0.00 0.00 0.0000 0.0000
0.154 2 10.158042 0.395581 1.066870 6.813049 4.890442 -2.197266 50.00 50.00 4.9 5.9 0.133 0.203 50.0841 48.2953 0.1708 0.0011 0.012977 -1.334876 11.83 490 730 0.00 0.00 0.0000 0.0000
0.155 2 10.874883 -1.203525 2.210459 7.904053 4.325867 -2.075195 50.00 50.00 5.9 5.0 0.139 0.247 48.2953 50.0841 0.1722 0.0011 0.015573 -1.336446 11.83 490 730 0.00 0.00 0.0000 0.0000
0.156 2 10.709457 -1.179551 4.111645 8.491516 4.974365 -2.510071 50.00 50.00 5.0 5.0 0.266 0.310 50.0841 50.0841 0.1734 0.0011 0.015573 -1.335391 11.80 510 750 0.00 0.00 0.0000 0.0000
0.157 2 10.776587 -0.141450 2.529321 9.033203 4.409790 -2.647400 50.00 50.00 5.0 5.9 0.342 0.260 50.0841 48.2953 0.1750 0.0011 0.015573 -1.334060 11.80 490 720 0.00 0.00 0.0000 0.0000
0.158 2 10.699868 -0.841509 2.869761 8.834839 3.959656 -2.380371 50.00 50.00 5.0 5.0 0.380 0.291 50.0841 50.0841 0.1762 0.0011 0.015573 -1.333798 11.80 490 720 0.00 0.00 0.0000 0.0000
0.159 2 10.428955 0.103091 3.579409 8.125305 4.241943 -2.182007 50.00 50.00 5.0 5.0 0.348 0.291 50.0841 50.0841 0.1778 0.0012 0.015573 -1.332552 11.80 490 720 0.00 0.00 0.0000 0.0000
0.160 2 10.131670 0.062334 4.315430 7.873535 5.302429 -1.777649 50.00 50.00 4.9 5.0 0.279 0.298 50.0841 50.0841 0.1790 0.0012 0.015573 -1.329927 11.80 490 730 0.00 0.00 0.0000 0.0000
0.161 2 9.793628 -0.033564 3.351650 8.171082 5.676270 -1.869202 50.00 50.00 4.9 5.0 0.234 0.253 50.0841 50.0841 0.1806 0.0012 0.015573 -1.327350 11.82 510 740 0.00 0.00 0.0000 0.0000
0.162 2 10.083720 0.649712 -0.071924 7.797241 4.333496 -2.143860 50.00 50.00 4.9 5.9 0.228 0.253 50.0841 48.2953 0.1818 0.0012 0.015573 -1.328890 11.82 490 720 0.00 0.00 0.0000 0.0000
0.163 2 9.757666 0.752803 0.911035 7.369995 4.417419 -3.021240 50.00 50.00 4.9 5.0 0.203 0.272 50.0841 50.0841 0.1834 0.0013 0.015573 -1.332754 11.82 490 720 0.00 0.00 0.0000 0.0000
0.164 2 9.359687 0.426748 3.469126 7.080078 5.699158 -2.540588 50.00 50.00 4.9 5.0 0.184 0.304 50.0841 50.0841 0.1846 0.0013 0.015573 -1.332944 11.82 490 730 0.00 0.00 0.0000 0.0000
0.165 2 9.767256 0.733623 2.409448 6.446838 5.760193 -2.723694 50.00 50.00 5.9 5.0 0.209 0.266 48.2953 50.0841 0.1863 0.0013 0.015573 -1.331646 11.82 490 720 0.00 0.00 0.0000 0.0000
0.166 2 10.172426 -0.117476 0.280503 6.713867 4.882812 -3.067017 50.00 50.00 5.0 5.0 0.279 0.241 50.0841 50.0841 0.1877 0.0013 0.018168 -1.333622 11.79 510 750 0.00 0.00 0.0000 0.0000
0.167 2 10.438544 -0.647314 1.011729 7.545471 4.249573 -2.960205 50.00 50.00 5.0 4.9 0.386 0.196 50.0841 50.0841 0.1889 0.0013 0.018168 -1.337010 11.79 490 720 0.00 0.00 0.0000 0.0000
0.168 2 10.568007 -0.649712 2.817017 8.110046 4.241943 -3.242493 50.00 50.00 5.0 4.9 0.342 0.203 50.0841 50.0841 0.1905 0.0014 0.018168 -1.338030 11.79 490 720 0.00 0.00 0.0000 0.0000
0.169 2 10.491289 -0.493877 3.627358 8.384705 4.302979 -3.387451 50.00 50.00 5.9 4.9 0.279 0.247 48.2953 50.0841 0.1917 0.0014 0.018168 -1.336690 11.79 490 720 0.00 0.00 0.0000 0.0000
0.170 2 10.637534 -0.939805 2.637207 8.720398 4.089355 -3.234863 50.00 50.00 5.9 4.9 0.304 0.215 48.2953 50.0841 0.1933 0.0014 0.018168 -1.335551 11.79 490 720 0.00 0.00 0.0000 0.0000
0.171 2 10.831728 -0.568198 2.879350 8.567810 4.203796 -2.716064 50.00 50.00 5.0 5.9 0.431 0.209 50.0841 48.2953 0.1945 0.0015 0.018168 -1.335159 11.79 510 750 0.00 0.00 0.0000 0.0000
0.172 2 10.522456 -0.409966 3.241367 8.270264 3.776550 -2.685547 50.00 50.00 5.0 5.0 0.393 0.247 50.0841 50.0841 0.1961 0.0015 0.018168 -1.334225 11.79 490 720 0.00 0.00 0.0000 0.0000
0.173 2 10.047758 -0.292490 3.027993 8.262634 3.753662 -2.166748 50.00 50.00 5.0 5.0 0.291 0.279 50.0841 50.0841 0.1973 0.0015 0.018168 -1.332988 11.79 490 720 0.00 0.00 0.0000 0.0000
0.174 2 9.937475 0.314067 3.363638 7.881165 4.661560 -2.540588 50.00 50.00 5.0 3.9 0.279 0.234 50.0841 52.0104 0.1989 0.0015 0.018168 -1.331494 11.79 490 720 0.00 0.00 0.0000 0.0000
0.175 2 9.841577 0.213374 2.800234 7.781982 5.218506 -2.861023 50.00 50.00 4.9 3.9 0.336 0.190 50.0841 52.0104 0.2001 0.0016 0.018168 -1.330171 11.79 490 730 0.00 0.00 0.0000 0.0000
0.176 2 9.709717 0.445928 1.795698 7.431030 5.249023 -2.456665 50.00 50.00 6.8 4.9 0.317 0.095 46.6300 50.0841 0.2017 0.0016 0.018168 -1.330290 11.82 510 750 0.00 0.00 0.0000 0.0000
0.177 2 9.668960 0.592173 1.877212 6.866455 5.187988 -2.845764 50.00 50.00 5.0 4.9 0.380 0.076 50.0841 50.0841 0.2032 0.0016 0.020764 -1.331253 11.82 490 730 0.00 0.00 0.0000 0.0000
0.178 2 9.750473 0.486685 2.160112 6.332397 5.317688 -3.120422 50.00 50.00 5.0 4.9 0.367 0.146 50.0841 50.0841 0.2044 0.0016 0.020764 -1.331848 11.82 490 720 0.00 0.00 0.0000 0.0000
0.179 2 9.923091 0.256528 1.644658 6.332397 5.241394 -2.494812 50.00 50.00 5.0 4.9 0.285 0.184 50.0841 50.0841 0.2060 0.0017 0.020764 -1.332704 11.82 490 720 0.00 0.00 0.0000 0.0000
0.180 2 10.136464 -0.064731 1.220308 6.713867 4.699707 -2.700806 50.00 50.00 5.0 4.9 0.253 0.196 50.0841 50.0841 0.2072 0.0017 0.020764 -1.334520 11.82 490 730 0.00 0.00 0.0000 0.0000
0.181 2 10.292299 -0.510659 1.764531 7.507324 4.356384 -3.219604 50.00 50.00 4.9 5.9 0.203 0.184 50.0841 48.2953 0.2088 0.0017 0.020764 -1.336253 11.87 510 750 0.00 0.00 0.0000 0.0000
0.182 2 10.745420 -0.685674 2.608438 7.942200 4.173279 -3.402710 50.00 50.00 4.9 4.9 0.209 0.234 50.0841 50.0841 0.2100 0.0018 0.020764 -1.336785 11.87 490 720 0.00 0.00 0.0000 0.0000
0.183 2 10.635137 -0.474697 3.176636 8.247375 4.043579 -3.479004 50.00 50.00 5.9 4.9 0.203 0.285 48.2953 50.0841 0.2116 0.0018 0.020764 -1.336116 11.87 490 720 0.00 0.00 0.0000 0.0000
0.184 2 10.558417 -0.774380 2.994429 8.705139 3.837585 -3.501892 50.00 50.00 5.9 5.9 0.247 0.272 48.2953 48.2953 0.2128 0.0018 0.020764 -1.335085 11.87 490 730 0.00 0.00 0.0000 0.0000
0.185 2 10.764599 -0.429145 2.749888 8.552551 3.707886 -3.425598 50.00 50.00 5.0 5.9 0.329 0.279 50.0841 48.2953 0.2144 0.0018 0.020764 -1.334475 11.87 490 720 0.00 0.00 0.0000 0.0000
0.186 2 10.481699 -0.045552 2.951274 8.087158 3.883362 -2.883911 50.00 50.00 5.0 5.0 0.437 0.323 50.0841 50.0841 0.2156 0.0019 0.020764 -1.333895 11.77 510 750 0.00 0.00 0.0000 0.0000
0.187 2 10.150849 -0.352427 3.526665 8.094788 4.341125 -2.632141 50.00 50.00 5.0 5.0 0.367 0.342 50.0841 50.0841 0.2172 0.0019 0.020764 -1.332487 11.77 490 720 0.00 0.00 0.0000 0.0000
0.188 2 9.966245 0.136655 3.819155 7.919312 5.256653 -2.685547 50.00 50.00 5.0 5.0 0.355 0.272 50.0841 50.0841 0.2184 0.0019 0.020764 -1.330189 11.77 490 720 0.00 0.00 0.0000 0.0000
0.189 2 9.752871 0.249336 2.349512 7.682800 5.424500 -2.525330 50.00 50.00 4.9 5.9 0.298 0.247 50.0841 48.2953 0.2200 0.0020 0.020764 -1.328897 11.77 490 720 0.00 0.00 0.0000 0.0000
0.190 2 9.800820 0.177412 1.539170 7.583618 5.180359 -2.723694 50.00 50.00 4.9 5.0 0.253 0.285 50.0841 50.0841 0.2213 0.0020 0.020764 -1.329713 11.77 490 730 0.00 0.00 0.0000 0.0000
0.191 2 9.098364 0.397979 2.030649 7.141113 5.432129 -3.379822 50.00 50.00 4.9 5.0 0.253 0.279 50.0841 50.0841 0.2229 0.0020 0.020764 -1.330679 11.79 510 740 0.00 0.00 0.0000 0.0000
0.192 2 10.167631 -0.613750 2.143330 6.660461 5.577087 -2.716064 50.00 50.00 4.9 5.0 0.203 0.272 50.0841 50.0841 0.2243 0.0020 0.023359 -1.331107 11.79 490 730 0.00 0.00 0.0000 0.0000
0.193 2 10.685483 1.225103 2.812222 5.561829 6.011963 -3.005981 50.00 50.00 4.9 5.0 0.215 0.253 50.0841 50.0841 0.2257 0.0021 0.020764 -1.331148 11.79 490 730 0.00 0.00 0.0000 0.0000
0.194 2 9.817602 -0.258926 1.133999 6.507874 4.913330 -2.990723 50.00 50.00 4.9 4.9 0.209 0.222 50.0841 50.0841 0.2271 0.0021 0.023359 -1.332112 11.79 490 730 0.00 0.00 0.0000 0.0000
0.195 2 10.160439 0.213374 0.184604 6.889343 3.501892 -3.654480 50.00 50.00 4.9 4.9 0.209 0.209 50.0841 50.0841 0.2283 0.0021 0.023359 -1.335447 11.79 490 730 0.00 0.00 0.0000 0.0000
0.196 2 10.261132 -0.810342 2.469385 7.560730 4.310608 -3.189087 50.00 50.00 4.9 4.9 0.177 0.228 50.0841 50.0841 0.2299 0.0022 0.023359 -1.337522 11.85 510 740 0.00 0.00 0.0000 0.0000
0.197 2 10.735829 -0.453120 4.118838 7.888794 5.401611 -3.181458 50.00 50.00 5.9 4.9 0.152 0.228 48.2953 50.0841 0.2311 0.0022 0.023359 -1.336092 11.85 490 730 0.00 0.00 0.0000 0.0000
0.198 2 11.047500 -0.124668 2.526924 7.972717 4.135132 -3.326416 50.00 50.00 5.9 4.9 0.266 0.209 48.2953 50.0841 0.2327 0.0022 0.023359 -1.334803 11.85 490 720 0.00 0.00 0.0000 0.0000
0.199 2 10.747817 -0.819932 2.349512 8.125305 3.135681 -2.777100 50.00 50.00 5.9 4.9 0.361 0.203 48.2953 50.0841 0.2339 0.0023 0.023359 -1.335056 11.85 490 720 0.00 0.00 0.0000 0.0000
0.200 2 10.400186 -1.402515 3.701679 8.514404 4.112244 -2.555847 50.00 50.00 5.9 4.9 0.437 0.177 48.2953 50.0841 0.2355 0.0023 0.023359 -1.334145 11.85 490 720 0.00 0.00 0.0000 0.0000
0.201 2 10.448134 0.115078 4.027734 8.110046 5.279541 -2.136230 50.00 50.00 5.9 4.9 0.393 0.215 48.2953 50.0841 0.2367 0.0023 0.023359 -1.331722 11.80 510 750 0.00 0.00 0.0000 0.0000
0.202 2 9.498740 0.726431 3.027993 7.324219 5.287170 -2.426147 50.00 50.00 6.8 4.9 0.443 0.215 46.6300 50.0841 0.2383 0.0024 0.023359 -1.329666 11.80 490 720 0.00 0.00 0.0000 0.0000
0.203 2 9.342905 -0.884663 2.819414 7.614136 5.790710 -2.075195 50.00 50.00 5.9 4.9 0.475 0.203 48.2953 50.0841 0.2396 0.0024 0.023359 -1.328388 11.80 490 720 0.00 0.00 0.0000 0.0000
0.204 2 9.865551 0.628135 2.258408 7.331848 6.759644 -2.426147 50.00 50.00 5.9 4.9 0.532 0.190 48.2953 50.0841 0.2412 0.0024 0.023359 -1.327950 11.80 490 730 0.00 0.00 0.0000 0.0000
0.205 2 10.325864 0.249336 0.800752 7.255554 6.370544 -2.815247 50.00 50.00 5.9 4.9 0.462 0.209 48.2953 50.0841 0.2426 0.0025 0.025955 -1.329650 11.80 490 730 0.00 0.00 0.0000 0.0000
0.206 2 9.220634 -0.071924 0.409966 7.644653 5.004883 -2.845764 50.00 50.00 5.0 4.9 0.418 0.209 50.0841 50.0841 0.2440 0.0025 0.023359 -1.333121 11.82 510 750 0.00 0.00 0.0000 0.0000
0.207 2 9.484355 1.289834 2.100176 5.950928 4.707336 -3.097534 50.00 50.00 5.0 3.9 0.374 0.222 50.0841 52.0104 0.2454 0.0025 0.025955 -1.335146 11.82 490 730 0.00 0.00 0.0000 0.0000
0.208 2 11.227309 -0.011987 4.114043 5.187988 6.301880 -3.318787 50.00 50.00 5.0 4.9 0.272 0.171 50.0841 50.0841 0.2468 0.0026 0.023359 -1.334082 11.82 490 730 0.00 0.00 0.0000 0.0000
0.209 2 10.285107 -0.563403 0.520249 5.798340 5.691528 -3.280640 50.00 50.00 5.0 4.9 0.215 0.114 50.0841 50.0841 0.2482 0.0026 0.025955 -1.334687 11.82 490 720 0.00 0.00 0.0000 0.0000
0.210 2 10.143657 0.026372 0.258926 6.393433 3.913879 -3.005981 50.00 50.00 5.9 4.9 0.190 0.203 48.2953 50.0841 0.2496 0.0026 0.023359 -1.338527 11.82 490 730 0.00 0.00 0.0000 0.0000
0.211 2 11.088257 -0.572993 5.238452 7.301331 5.065918 -3.250122 50.00 50.00 5.0 5.9 0.272 0.196 50.0841 48.2953 0.2510 0.0027 0.025955 -1.338426 11.82 510 760 0.00 0.00 0.0000 0.0000
0.212 2 10.462520 -1.599106 4.401738 8.567810 6.416321 -3.318787 50.00 50.00 5.0 4.9 0.317 0.222 50.0841 50.0841 0.2524 0.0027 0.023359 -1.334615 11.82 490 730 0.00 0.00 0.0000 0.0000
0.213 2 10.850908 -0.297285 0.908638 8.537292 4.714966 -2.929688 50.00 50.00 5.0 4.9 0.279 0.279 50.0841 50.0841 0.2538 0.0028 0.025955 -1.334425 11.82 490 720 0.00 0.00 0.0000 0.0000
0.214 2 10.714252 -0.625737 2.692348 8.132935 3.959656 -2.952576 50.00 50.00 5.0 5.9 0.285 0.260 50.0841 48.2953 0.2552 0.0028 0.023359 -1.335766 11.82 490 730 0.00 0.00 0.0000 0.0000
0.215 2 9.678550 -0.112681 4.727793 7.766724 5.523682 -2.487183 50.00 50.00 4.9 4.9 0.323 0.285 50.0841 50.0841 0.2566 0.0028 0.025955 -1.333402 11.82 490 730 0.00 0.00 0.0000 0.0000
0.216 2 9.772051 -0.592173 4.106851 7.675171 7.423401 -2.479553 50.00 50.00 4.9 4.9 0.266 0.279 50.0841 50.0841 0.2581 0.0029 0.023359 -1.329553 11.82 510 750 0.00 0.00 0.0000 0.0000
0.217 2 9.654575 0.436338 1.436079 7.438660 7.293701 -2.723694 50.00 50.00 4.9 4.9 0.253 0.272 50.0841 50.0841 0.2595 0.0029 0.025955 -1.328802 11.82 490 730 0.00 0.00 0.0000 0.0000
0.218 2 9.961450 0.167822 0.640122 7.255554 6.294250 -2.349854 50.00 50.00 4.9 4.9 0.234 0.234 50.0841 50.0841 0.2609 0.0029 0.023359 -1.331379 11.82 490 730 0.00 0.00 0.0000 0.0000
0.219 2 9.853564 0.563403 2.380679 6.919861 6.378174 -2.639771 50.00 50.00 4.9 4.9 0.196 0.272 50.0841 50.0841 0.2623 0.0030 0.025955 -1.333027 11.82 490 730 0.00 0.00 0.0000 0.0000
0.220 2 9.733691 0.587378 2.188882 6.355286 6.729126 -3.349304 50.00 50.00 4.9 5.9 0.165 0.234 50.0841 48.2953 0.2637 0.0030 0.023359 -1.333085 11.82 490 730 0.00 0.00 0.0000 0.0000
0.221 2 9.980630 0.546621 0.887061 5.851746 6.362915 -3.089905 50.00 50.00 4.9 3.9 0.190 0.272 50.0841 52.0104 0.2653 0.0030 0.023359 -1.334611 11.79 510 750 0.00 0.00 0.0000 0.0000
0.222 2 10.107695 0.011987 1.208320 6.263733 6.111145 -2.944946 50.00 50.00 4.9 4.9 0.190 0.241 50.0841 50.0841 0.2667 0.0031 0.025955 -1.337124 11.79 490 730 0.00 0.00 0.0000 0.0000
0.223 2 10.460122 -0.146245 2.507744 6.752014 6.095886 -3.074646 50.00 50.00 4.9 4.9 0.234 0.222 50.0841 50.0841 0.2681 0.0031 0.023359 -1.338138 11.79 490 730 0.00 0.00 0.0000 0.0000
0.224 2 10.177221 -0.779175 3.037583 7.026672 5.874634 -3.364563 50.00 50.00 5.9 4.9 0.285 0.203 48.2953 50.0841 0.2695 0.0031 0.025955 -1.337440 11.79 490 730 0.00 0.00 0.0000 0.0000
0.225 2 11.500620 -1.074062 3.308496 7.003784 5.516052 -3.456116 50.00 50.00 5.0 4.9 0.291 0.196 50.0841 50.0841 0.2707 0.0032 0.025955 -1.336317 11.79 490 730 0.00 0.00 0.0000 0.0000
0.226 2 11.500620 0.443530 3.708872 6.111145 5.195618 -3.944397 50.00 50.00 5.0 4.9 0.374 0.203 50.0841 50.0841 0.2723 0.0032 0.025955 -1.335006 11.82 510 740 0.00 0.00 0.0000 0.0000
0.227 2 10.277915 -1.174756 2.896133 6.530762 4.402161 -3.639221 50.00 50.00 5.0 4.9 0.348 0.177 50.0841 50.0841 0.2735 0.0032 0.025955 -1.333784 11.82 490 720 0.00 0.00 0.0000 0.0000
0.228 2 9.203853 -0.546621 3.325278 7.514954 5.683899 -3.082275 50.00 50.00 5.0 3.9 0.298 0.209 50.0841 52.0104 0.2751 0.0033 0.025955 -1.332237 11.82 490 720 0.00 0.00 0.0000 0.0000
0.229 2 9.515522 -1.198730 3.461933 8.903503 7.621765 -2.197266 50.00 50.00 4.9 4.9 0.260 0.146 50.0841 50.0841 0.2764 0.0033 0.025955 -1.329959 11.82 490 720 0.00 0.00 0.0000 0.0000
0.230 2 10.611162 0.834316 2.327935 7.270813 7.987976 -1.274109 50.00 50.00 4.9 5.9 0.234 0.165 50.0841 48.2953 0.2780 0.0034 0.025955 -1.329000 11.82 490 720 0.00 0.00 0.0000 0.0000
0.231 2 10.246748 0.716841 0.843906 6.248474 6.210327 -1.281738 50.00 50.00 4.9 4.9 0.247 0.171 50.0841 50.0841 0.2792 0.0034 0.025955 -1.330713 11.79 510 740 0.00 0.00 0.0000 0.0000
0.232 2 10.030976 -0.690469 2.136138 6.500244 5.935669 -2.014160 50.00 50.00 4.9 4.9 0.260 0.272 50.0841 50.0841 0.2808 0.0034 0.025955 -1.332471 11.79 490 720 0.00 0.00 0.0000 0.0000
0.233 2 9.798423 0.918227 3.059160 6.431580 7.072449 -3.021240 50.00 50.00 4.9 4.9 0.190 0.272 50.0841 50.0841 0.2820 0.0035 0.025955 -1.332004 11.79 490 720 0.00 0.00 0.0000 0.0000
0.234 2 9.172686 0.019180 2.478975 6.507874 7.957458 -3.356934 50.00 50.00 4.9 4.9 0.171 0.253 50.0841 50.0841 0.2836 0.0035 0.025955 -1.330993 11.79 490 720 0.00 0.00 0.0000 0.0000
0.235 2 9.867949 0.767187 1.316206 6.011963 7.461548 -3.822327 50.00 50.00 4.9 4.9 0.184 0.234 50.0841 50.0841 0.2848 0.0035 0.025955 -1.331682 11.79 490 720 0.00 0.00 0.0000 0.0000
0.236 2 11.006742 -0.258926 1.241885 5.981445 6.591797 -4.096985 50.00 50.00 4.9 4.9 0.209 0.196 50.0841 50.0841 0.2864 0.0036 0.025955 -1.333871 11.83 510 740 0.00 0.00 0.0000 0.0000
0.237 2 11.009140 -0.251733 1.555952 6.095886 5.577087 -4.074097 50.00 50.00 4.9 4.9 0.190 0.260 50.0841 50.0841 0.2878 0.0036 0.028550 -1.335954 11.83 490 730 0.00 0.00 0.0000 0.0000
0.238 2 10.654316 -0.330850 1.886802 6.172180 5.027771 -4.096985 50.00 50.00 5.9 4.9 0.203 0.241 48.2953 50.0841 0.2892 0.0037 0.025955 -1.337388 11.83 490 730 0.00 0.00 0.0000 0.0000
0.239 2 10.004604 -0.254131 3.694487 6.469727 5.752563 -4.234314 50.00 50.00 5.0 5.9 0.253 0.222 50.0841 48.2953 0.2906 0.0037 0.028550 -1.336679 11.83 490 730 0.00 0.00 0.0000 0.0000
0.240 2 10.488892 -0.472300 4.941167 6.965637 6.622314 -3.974915 50.00 50.00 5.0 4.9 0.380 0.241 50.0841 50.0841 0.2918 0.0037 0.028550 -1.333346 11.83 490 730 0.00 0.00 0.0000 0.0000
0.241 2 10.661509 -1.594311 3.509883 7.545471 7.011414 -3.211975 50.00 50.00 5.0 6.8 0.348 0.285 50.0841 46.6300 0.2934 0.0038 0.028550 -1.330422 11.82 510 750 0.00 0.00 0.0000 0.0000
0.242 2 10.591982 -0.019180 1.572734 7.202148 6.072998 -3.517151 50.00 50.00 5.0 5.0 0.279 0.329 50.0841 50.0841 0.2946 0.0038 0.028550 -1.330461 11.82 490 720 0.00 0.00 0.0000 0.0000
0.243 2 10.486494 -0.549019 2.965659 7.293701 5.981445 -3.059387 50.00 50.00 4.9 5.0 0.253 0.386 50.0841 50.0841 0.2963 0.0039 0.028550 -1.330927 11.82 490 720 0.00 0.00 0.0000 0.0000
0.244 2 9.630600 0.191797 4.006157 7.202148 7.049561 -2.983093 50.00 50.00 4.9 5.0 0.234 0.298 50.0841 50.0841 0.2975 0.0039 0.028550 -1.328933 11.82 490 730 0.00 0.00 0.0000 0.0000
0.245 2 9.537099 -0.079116 2.553296 7.202148 7.949829 -4.211426 50.00 50.00 6.8 5.0 0.196 0.241 46.6300 50.0841 0.2991 0.0039 0.028550 -1.327099 11.82 490 720 0.00 0.00 0.0000 0.0000
0.246 2 9.911103 0.222964 1.834058 6.820679 8.277893 -4.104614 50.00 50.00 5.0 4.9 0.310 0.241 50.0841 50.0841 0.3003 0.0040 0.028550 -1.327383 11.74 510 750 0.00 0.00 0.0000 0.0000
0.247 2 10.074131 0.618545 0.906240 6.416321 7.514954 -3.585815 50.00 50.00 5.0 4.9 0.361 0.203 50.0841 50.0841 0.3019 0.0040 0.028550 -1.329366 11.74 490 720 0.00 0.00 0.0000 0.0000
0.248 2 9.987822 0.501069 1.011729 6.088257 6.828308 -3.829956 50.00 50.00 5.0 3.9 0.304 0.234 50.0841 52.0104 0.3033 0.0041 0.031146 -1.332135 11.74 490 730 0.00 0.00 0.0000 0.0000
0.249 2 10.054951 0.431543 1.965918 5.874634 6.721497 -4.180908 50.00 50.00 5.0 4.9 0.260 0.165 50.0841 50.0841 0.3045 0.0041 0.031146 -1.333833 11.74 490 720 0.00 0.00 0.0000 0.0000
0.250 2 10.280313 0.213374 1.946738 5.828857 6.507874 -3.974915 50.00 50.00 4.9 4.9 0.241 0.139 50.0841 50.0841 0.3061 0.0041 0.031146 -1.334646 11.74 490 720 0.00 0.00 0.0000 0.0000
0.251 2 10.479301 0.050347 2.064214 5.928040 6.111145 -4.325867 50.00 50.00 4.9 4.9 0.298 0.190 50.0841 50.0841 0.3075 0.0042 0.028550 -1.335435 11.80 510 750 0.00 0.00 0.0000 0.0000
0.252 2 10.776587 -0.350029 2.898530 6.340027 5.691528 -4.745483 50.00 50.00 5.9 4.9 0.304 0.196 48.2953 50.0841 0.3089 0.0042 0.031146 -1.335466 11.80 490 730 0.00 0.00 0.0000 0.0000
0.253 2 10.997153 -0.644917 3.615371 6.523132 5.622864 -5.462646 50.00 50.00 5.9 4.9 0.310 0.184 48.2953 50.0841 0.3101 0.0043 0.031146 -1.334282 11.80 490 720 0.00 0.00 0.0000 0.0000
0.254 2 10.956396 -0.544224 3.610576 6.561279 5.470276 -4.844666 50.00 50.00 5.0 4.9 0.386 0.171 50.0841 50.0841 0.3117 0.0043 0.031146 -1.332573 11.80 490 720 0.00 0.00 0.0000 0.0000
0.255 2 10.704662 -0.867881 3.452344 6.584167 5.477905 -3.929138 50.00 50.00 5.0 4.9 0.393 0.190 50.0841 50.0841 0.3129 0.0044 0.031146 -1.330955 11.80 490 720 0.00 0.00 0.0000 0.0000
0.256 2 10.172426 -0.558608 3.399600 6.858826 6.256104 -3.677368 50.00 50.00 5.0 4.9 0.304 0.196 50.0841 50.0841 0.3146 0.0044 0.031146 -1.329320 11.83 510 740 0.00 0.00 0.0000 0.0000
0.257 2 9.841577 -0.450723 3.224585 7.278442 6.950378 -3.364563 50.00 50.00 5.0 5.9 0.253 0.215 50.0841 48.2953 0.3158 0.0044 0.031146 -1.327660 11.83 490 720 0.00 0.00 0.0000 0.0000
0.258 2 9.985424 -0.385991 2.582065 7.400513 7.049561 -3.143311 50.00 50.00 5.9 4.9 0.253 0.234 48.2953 50.0841 0.3174 0.0045 0.031146 -1.326713 11.83 490 720 0.00 0.00 0.0000 0.0000
0.259 2 10.018989 0.270913 1.786108 6.988525 6.721497 -3.562927 50.00 50.00 5.0 4.9 0.323 0.247 50.0841 50.0841 0.3186 0.0045 0.031146 -1.327175 11.83 490 720 0.00 0.00 0.0000 0.0000
0.260 2 9.786435 0.232554 1.788506 6.965637 6.858826 -3.593445 50.00 50.00 5.9 4.9 0.291 0.260 48.2953 50.0841 0.3202 0.0046 0.031146 -1.328345 11.83 490 730 0.00 0.00 0.0000 0.0000
0.261 2 9.601830 0.740815 1.656645 6.721497 6.813049 -3.662109 50.00 50.00 5.0 4.9 0.336 0.241 50.0841 50.0841 0.3216 0.0046 0.033741 -1.329547 11.79 510 750 0.00 0.00 0.0000 0.0000
0.262 2 9.932680 1.035703 1.069268 6.050110 6.423950 -4.501343 50.00 50.00 5.0 4.9 0.323 0.203 50.0841 50.0841 0.3230 0.0047 0.031146 -1.331456 11.79 490 730 0.00 0.00 0.0000 0.0000
0.263 2 10.186811 0.642520 1.563144 5.668640 6.347656 -4.760742 50.00 50.00 5.0 4.9 0.298 0.184 50.0841 50.0841 0.3244 0.0047 0.033741 -1.333516 11.79 490 730 0.00 0.00 0.0000 0.0000
0.264 2 10.508071 0.350029 2.184087 5.531311 5.798340 -4.837036 50.00 50.00 5.0 4.9 0.222 0.253 50.0841 50.0841 0.3258 0.0048 0.031146 -1.334573 11.79 490 730 0.00 0.00 0.0000 0.0000
0.265 2 10.834126 0.069526 2.819414 5.752563 5.439758 -5.180359 50.00 50.00 4.9 4.9 0.222 0.222 50.0841 50.0841 0.3272 0.0048 0.033741 -1.334604 11.79 490 720 0.00 0.00 0.0000 0.0000
0.266 2 10.961191 -0.728828 3.133481 6.896973 4.783630 -5.043030 50.00 50.00 5.9 4.9 0.215 0.222 48.2953 50.0841 0.3286 0.0049 0.031146 -1.333915 11.82 510 750 0.00 0.00 0.0000 0.0000
0.267 2 10.699868 -1.002139 3.315688 7.575989 4.165649 -4.981995 50.00 50.00 5.9 4.9 0.279 0.209 48.2953 50.0841 0.3300 0.0049 0.033741 -1.332796 11.82 490 730 0.00 0.00 0.0000 0.0000
0.268 2 10.951601 0.246938 3.845527 7.102966 4.425049 -5.004883 50.00 50.00 5.9 4.9 0.386 0.190 48.2953 50.0841 0.3312 0.0049 0.033741 -1.331116 11.82 490 720 0.00 0.00 0.0000 0.0000
0.269 2 10.457725 -2.057021 3.675308 7.438660 5.569458 -3.822327 50.00 50.00 5.9 4.9 0.412 0.222 48.2953 50.0841 0.3328 0.0050 0.033741 -1.329086 11.82 490 720 0.00 0.00 0.0000 0.0000
0.270 2 9.870346 0.577788 1.999482 6.774902 5.500793 -3.822327 50.00 50.00 5.9 4.9 0.412 0.190 48.2953 50.0841 0.3341 0.0050 0.033741 -1.328451 11.82 490 720 0.00 0.00 0.0000 0.0000
0.271 2 10.237158 -1.261064 3.370830 7.377625 5.943298 -3.173828 50.00 50.00 5.9 4.9 0.405 0.228 48.2953 50.0841 0.3357 0.0051 0.033741 -1.328023 11.77 510 750 0.00 0.00 0.0000 0.0000
0.272 2 9.860757 -0.160630 3.327676 8.117676 6.858826 -3.005981 50.00 50.00 5.9 4.9 0.437 0.190 48.2953 50.0841 0.3369 0.0051 0.033741 -1.326348 11.77 490 720 0.00 0.00 0.0000 0.0000
0.273 2 9.808012 0.570596 0.889458 8.605957 6.538391 -3.120422 50.00 50.00 5.9 4.9 0.437 0.247 48.2953 50.0841 0.3385 0.0052 0.033741 -1.326954 11.77 490 720 0.00 0.00 0.0000 0.0000
0.274 2 9.637793 0.273311 1.424092 8.064270 6.370544 -3.242493 50.00 50.00 5.0 4.9 0.405 0.196 50.0841 50.0841 0.3397 0.0052 0.033741 -1.329324 11.77 490 720 0.00 0.00 0.0000 0.0000
0.275 2 9.081582 1.786108 2.435820 6.149292 7.041931 -3.768921 50.00 50.00 5.0 4.9 0.336 0.215 50.0841 50.0841 0.3413 0.0053 0.033741 -1.329942 11.77 490 720 0.00 0.00 0.0000 0.0000
0.276 2 10.064541 1.023716 2.047431 5.332947 7.034302 -3.677368 50.00 50.00 3.9 5.9 0.253 0.215 52.0104 48.2953 0.3425 0.0053 0.033741 -1.330008 11.82 510 750 0.00 0.00 0.0000 0.0000
0.277 2 11.337592 -0.421953 0.704853 5.973816 5.935669 -4.280090 50.00 50.00 3.9 4.9 0.190 0.253 52.0104 50.0841 0.3441 0.0054 0.033741 -1.332062 11.82 490 720 0.00 0.00 0.0000 0.0000
0.278 2 10.565610 0.697661 0.987754 6.881714 4.356384 -4.409790 50.00 50.00 5.9 4.9 0.006 0.329 48.2953 50.0841 0.3457 0.0054 0.033741 -1.335163 11.82 490 720 0.00 0.00 0.0000 0.0000
0.279 2 10.131670 -0.807944 4.039721 7.324219 4.837036 -4.188538 50.00 50.00 4.9 4.9 0.095 0.285 50.0841 50.0841 0.3469 0.0055 0.033741 -1.335070 11.82 490 720 0.00 0.00 0.0000 0.0000
0.280 2 10.124477 0.688071 4.648676 6.439209 6.362915 -5.126953 50.00 50.00 5.9 6.8 0.247 0.253 48.2953 46.6300 0.3485 0.0055 0.033741 -1.331623 11.82 490 730 0.00 0.00 0.0000 0.0000
0.281 2 10.654316 -0.752803 1.474438 6.416321 6.126404 -4.295349 50.00 50.00 4.9 5.0 0.317 0.272 50.0841 50.0841 0.3497 0.0056 0.033741 -1.330628 11.77 510 750 0.00 0.00 0.0000 0.0000
0.282 2 11.375952 -1.222705 1.239487 7.202148 4.676819 -3.448486 50.00 50.00 5.9 5.0 0.367 0.374 48.2953 50.0841 0.3513 0.0056 0.033741 -1.332854 11.77 490 720 0.00 0.00 0.0000 0.0000
0.283 2 10.867690 -1.680620 3.776001 9.071350 4.333496 -3.829956 50.00 50.00 5.0 5.0 0.355 0.279 50.0841 50.0841 0.3525 0.0057 0.033741 -1.333102 11.77 490 720 0.00 0.00 0.0000 0.0000
0.284 2 9.611421 -0.436338 5.516557 9.819031 5.813599 -3.517151 50.00 50.00 5.0 5.9 0.329 0.253 50.0841 48.2953 0.3542 0.0057 0.033741 -1.329251 11.77 490 720 0.00 0.00 0.0000 0.0000
0.285 2 8.964107 0.688071 4.116440 8.834839 7.644653 -2.868652 50.00 50.00 5.0 5.0 0.266 0.247 50.0841 50.0841 0.3554 0.0058 0.033741 -1.324497 11.77 490 730 0.00 0.00 0.0000 0.0000
0.286 2 10.088515 0.270913 1.378540 8.110046 8.140564 -2.449036 50.00 50.00 5.0 5.0 0.253 0.291 50.0841 50.0841 0.3570 0.0058 0.033741 -1.323631 11.83 510 740 0.00 0.00 0.0000 0.0000
0.287 2 10.093310 -0.153437 -0.314067 8.163452 6.912231 -2.311707 50.00 50.00 4.9 5.0 0.234 0.279 50.0841 50.0841 0.3584 0.0059 0.036337 -1.327358 11.83 490 730 0.00 0.00 0.0000 0.0000
0.288 2 9.947065 1.181948 0.946997 7.797241 6.019592 -2.815247 50.00 50.00 4.9 5.0 0.215 0.234 50.0841 50.0841 0.3598 0.0059 0.033741 -1.331435 11.83 490 730 0.00 0.00 0.0000 0.0000
0.289 2 9.731294 0.690469 3.174238 7.331848 6.370544 -2.815247 50.00 50.00 4.9 4.9 0.215 0.222 50.0841 50.0841 0.3612 0.0060 0.036337 -1.332006 11.83 490 730 0.00 0.00 0.0000 0.0000
0.290 2 9.551484 0.927817 2.258408 6.614685 6.851196 -3.761292 50.00 50.00 4.9 4.9 0.234 0.165 50.0841 50.0841 0.3626 0.0060 0.033741 -1.331200 11.83 490 720 0.00 0.00 0.0000 0.0000
0.291 2 10.282710 0.939805 1.220308 6.072998 6.423950 -3.852844 50.00 50.00 4.9 4.9 0.228 0.215 50.0841 50.0841 0.3640 0.0061 0.036337 -1.332361 11.82 510 750 0.00 0.00 0.0000 0.0000
0.292 2 10.915639 -1.196333 1.519990 6.774902 5.561829 -3.402710 50.00 50.00 4.9 4.9 0.215 0.203 50.0841 50.0841 0.3654 0.0061 0.033741 -1.334439 11.82 490 730 0.00 0.00 0.0000 0.0000
0.293 2 10.695073 1.107627 2.073804 6.401062 4.753113 -3.623962 50.00 50.00 5.9 4.9 0.228 0.184 48.2953 50.0841 0.3668 0.0062 0.036337 -1.335764 11.82 490 730 0.00 0.00 0.0000 0.0000
0.294 2 10.937217 -1.136396 3.855117 6.843567 4.501343 -3.273010 50.00 50.00 5.0 4.9 0.228 0.234 50.0841 50.0841 0.3682 0.0062 0.033741 -1.335086 11.82 490 730 0.00 0.00 0.0000 0.0000
0.295 2 10.508071 -0.503467 4.315430 7.095337 5.409241 -2.326965 50.00 50.00 5.0 4.9 0.291 0.209 50.0841 50.0841 0.3696 0.0063 0.036337 -1.332455 11.82 490 730 0.00 0.00 0.0000 0.0000
0.296 2 10.496083 -0.925420 3.169443 7.652283 5.416870 -2.044678 50.00 50.00 5.0 4.9 0.241 0.203 50.0841 50.0841 0.3712 0.0063 0.036337 -1.330319 11.83 510 740 0.00 0.00 0.0000 0.0000
0.297 2 10.002207 -1.567939 3.565024 8.338928 5.981445 -1.556396 50.00 50.00 5.0 4.9 0.171 0.222 50.0841 50.0841 0.3725 0.0064 0.036337 -1.328689 11.83 490 720 0.00 0.00 0.0000 0.0000
0.298 2 10.285107 0.388389 2.829004 8.293152 6.202698 -1.419067 50.00 50.00 4.9 4.9 0.165 0.234 50.0841 50.0841 0.3741 0.0064 0.036337 -1.327330 11.83 490 720 0.00 0.00 0.0000 0.0000
0.299 2 10.002207 -1.438477 2.457397 9.368896 6.317139 -0.999451 50.00 50.00 4.9 4.9 0.152 0.215 50.0841 50.0841 0.3753 0.0065 0.036337 -1.327000 11.83 490 720 0.00 0.00 0.0000 0.0000
0.300 2 9.688139 1.153179 1.546362 8.483887 6.416321 -1.121521 50.00 50.00 4.9 4.9 0.222 0.215 50.0841 50.0841 0.3769 0.0065 0.036337 -1.327765 11.83 490 720 0.00 0.00 0.0000 0.0000
0.301 4 9.772051 0.328452 1.843647 7.804871 6.790161 -1.182556 49.16 49.16 4.5 4.5 0.310 0.222 50.0841 50.0841 0.3783 0.0066 0.038932 -1.329050 11.83 510 850 0.00 0.00 0.0000 0.0000
0.302 4 9.493945 0.513057 2.049829 7.522583 7.225037 -1.663208 48.32 48.32 4.0 3.0 0.241 0.222 50.0841 52.0104 0.3797 0.0066 0.036337 -1.329764 11.83 490 780 0.00 0.00 0.0000 0.0000
0.303 4 10.306684 1.148384 0.961382 7.522583 6.706238 -1.861572 47.48 47.48 3.5 3.5 0.152 0.076 50.0841 50.0841 0.3809 0.0067 0.036337 -1.331390 11.83 490 720 0.00 0.00 0.0000 0.0000
0.304 4 10.287504 0.484287 1.414502 7.156372 5.798340 -2.288818 46.64 46.64 4.0 3.0 0.082 0.013 48.2953 50.0841 0.3825 0.0067 0.036337 -1.333749 11.83 490 730 0.00 0.00 0.0000 0.0000
0.305 4 10.445737 0.520249 2.073804 6.759644 4.837036 -2.807617 45.80 45.80 2.5 3.5 0.044 -0.019 50.0841 48.2953 0.3839 0.0068 0.038932 -1.335058 11.83 490 730 0.00 0.00 0.0000 0.0000
0.306 4 10.745420 0.246938 3.114302 6.362915 5.104065 -2.891541 44.96 44.96 3.0 3.0 0.013 -0.095 48.2953 48.2953 0.3853 0.0068 0.036337 -1.334906 11.93 510 750 0.00 0.00 0.0000 0.0000
0.307 4 10.615956 -0.515454 2.912915 6.599426 5.210876 -2.502441 44.12 44.12 2.5 2.4 -0.165 -0.076 48.2953 48.2953 0.3865 0.0069 0.036337 -1.334044 11.93 490 720 0.00 0.00 0.0000 0.0000
0.308 4 10.661509 -0.352427 2.781054 7.019043 4.966736 -2.365112 43.28 43.28 2.0 1.9 -0.234 -0.158 48.2953 48.2953 0.3879 0.0069 0.038932 -1.333466 11.93 490 730 0.00 0.00 0.0000 0.0000
0.309 4 10.728638 -1.016523 3.831142 7.812500 4.776001 -1.976013 42.44 42.44 1.4 2.3 -0.272 -0.215 48.2953 46.6300 0.3891 0.0070 0.038932 -1.332159 11.93 490 730 0.00 0.00 0.0000 0.0000
0.310 4 10.618354 -1.500811 3.809565 9.086609 4.920959 -1.258850 41.60 41.60 1.8 2.6 -0.380 -0.253 46.6300 45.0756 0.3905 0.0070 0.036337 -1.329994 11.93 490 730 0.00 0.00 0.0000 0.0000
0.311 4 10.280313 -0.366812 2.831401 9.193420 5.126953 -0.854492 40.76 40.76 1.2 1.3 -0.266 -0.260 46.6300 46.6300 0.3919 0.0071 0.038932 -1.328604 12.01 510 750 0.00 0.00 0.0000 0.0000
0.312 4 10.136464 -0.376401 2.258408 8.895874 5.241394 -0.968933 39.92 39.92 0.8 0.8 -0.348 -0.234 46.6300 46.6300 0.3932 0.0071 0.038932 -1.328479 12.01 490 720 0.00 0.00 0.0000 0.0000
0.313 4 8.906568 -0.299683 2.380679 8.415222 6.393433 -0.656128 39.08 39.08 0.8 0.8 -0.456 -0.450 46.6300 46.6300 0.3944 0.0072 0.038932 -1.328420 12.01 490 720 0.00 0.00 0.0000 0.0000
0.314 4 9.829590 1.292231 2.570078 7.392883 7.301331 -1.281738 38.24 38.24 0.8 0.8 -0.507 -0.481 45.0756 45.0756 0.3956 0.0072 0.038932 -1.327983 12.01 490 720 0.00 0.00 0.0000 0.0000
0.315 4 11.558159 -0.951792 2.397461 9.025574 6.408691 -0.579834 37.39 37.39 -0.8 -0.8 -0.671 -0.614 45.0756 45.0756 0.3970 0.0073 0.041528 -1.328115 12.01 490 730 0.00 0.00 0.0000 0.0000
0.316 4 10.256337 -0.338042 1.193936 10.887146 4.760742 -1.136780 36.55 36.55 0.8 0.8 -0.665 -0.754 43.6216 43.6216 0.3982 0.0073 0.041528 -1.329652 11.83 510 740 0.00 0.00 0.0000 0.0000
0.317 4 9.258994 1.925161 2.440615 9.078979 4.074097 -1.289368 35.71 35.71 0.8 2.8 -0.735 -0.602 42.2584 37.5630 0.3992 0.0074 0.038932 -1.330651 11.83 490 720 0.00 0.00 0.0000 0.0000
0.318 4 9.244609 1.730967 3.737642 6.492615 7.125854 -2.166748 34.87 34.87 0.8 0.8 -0.811 -0.545 40.9779 40.9779 0.4004 0.0074 0.038932 -1.328954 11.83 490 720 0.00 0.00 0.0000 0.0000
0.319 4 9.597035 -0.155835 -0.122271 5.874634 7.995605 -3.196716 34.03 34.03 0.8 -0.8 -0.589 -0.374 39.7726 40.9779 0.4016 0.0075 0.038932 -1.329934 11.83 490 710 0.00 0.00 0.0000 0.0000
0.320 4 11.167373 -0.381196 -1.119614 6.492615 5.584717 -3.318787 33.19 33.19 0.8 -0.8 -0.589 -0.545 38.6363 39.7726 0.4026 0.0075 0.041528 -1.335702 11.83 490 730 0.00 0.00 0.0000 0.0000
0.321 4 11.268066 0.671289 3.648935 5.210876 4.257202 -3.189087 32.35 32.35 -0.8 -0.8 -0.621 -0.760 38.6363 39.7726 0.4038 0.0075 0.041528 -1.338161 11.88 510 750 0.00 0.00 0.0000 0.0000
0.322 4 9.879936 -1.167563 4.617510 5.195618 4.814148 -2.532959 31.51 31.51 0.8 -0.8 -0.640 -0.754 37.5630 38.6363 0.4048 0.0076 0.038932 -1.335260 11.88 490 730 0.00 0.00 0.0000 0.0000
0.323 4 10.695073 -0.819932 3.732846 6.584167 5.439758 -1.884460 30.67 30.67 0.8 -0.8 -0.659 -0.785 35.5860 37.5630 0.4058 0.0076 0.041528 -1.332181 11.88 490 730 0.00 0.00 0.0000 0.0000
0.324 4 10.596777 -1.256269 3.898271 8.888245 6.080627 -1.731873 29.83 29.83 1.0 -0.8 -0.659 -0.855 33.8067 36.5478 0.4068 0.0077 0.044123 -1.329992 11.88 490 730 0.00 0.00 0.0000 0.0000
0.325 4 10.853305 -0.724033 2.486167 9.819031 4.959106 -2.410889 28.99 28.99 -0.8 -0.8 -0.513 -0.874 34.6736 35.5860 0.4078 0.0077 0.041528 -1.328945 11.88 490 730 0.00 0.00 0.0000 0.0000
0.326 4 10.846113 -0.659302 2.188882 9.574890 3.410339 -2.494812 28.15 28.15 0.8 -0.8 -0.513 -0.741 32.9822 33.8067 0.4086 0.0078 0.041528 -1.329461 11.93 510 740 0.00 0.00 0.0000 0.0000
0.327 4 10.704662 -0.860688 3.176636 9.147644 3.540039 -1.914978 27.31 27.31 0.8 0.8 -0.538 -0.773 32.1969 32.1969 0.4094 0.0078 0.041528 -1.329351 11.93 490 720 0.00 0.00 0.0000 0.0000
0.328 4 10.651918 0.462710 2.143330 8.056641 3.433228 -1.602173 26.47 26.47 0.8 -0.8 -0.519 -0.735 31.4481 32.1969 0.4106 0.0078 0.041528 -1.329250 11.93 490 720 0.00 0.00 0.0000 0.0000
0.329 4 9.172686 0.558608 2.136138 6.835938 4.188538 -2.563477 25.63 25.63 -0.8 0.9 -0.386 -0.570 30.7334 28.7717 0.4114 0.0079 0.041528 -1.329736 11.93 490 720 0.00 0.00 0.0000 0.0000
0.330 4 9.621011 0.968574 2.994429 6.019592 5.180359 -1.533508 24.79 24.79 -0.8 0.8 -0.519 -0.500 30.0504 29.3972 0.4122 0.0079 0.041528 -1.329175 11.93 490 720 0.00 0.00 0.0000 0.0000
0.331 4 10.838921 0.011987 1.819673 6.698608 5.340576 -0.938416 23.95 23.95 -0.8 0.8 -0.697 -0.469 29.3972 28.1723 0.4131 0.0079 0.041528 -1.329235 11.93 510 740 0.00 0.00 0.0000 0.0000
0.332 4 9.891924 0.014385 0.050347 8.239746 4.516602 -0.976562 23.11 23.11 0.8 0.8 -0.640 -0.437 27.5973 27.5973 0.4139 0.0080 0.041528 -1.332235 11.93 490 700 0.00 0.00 0.0000 0.0000
0.333 4 9.237416 -0.230156 2.296767 8.209229 4.508972 -2.845764 22.27 22.27 0.8 0.8 -0.532 -0.342 26.5151 26.5151 0.4147 0.0080 0.041528 -1.334418 11.93 490 720 0.00 0.00 0.0000 0.0000
0.334 4 10.301889 1.066870 4.524009 6.477356 5.493164 -3.189087 21.43 21.43 -0.8 -0.8 -0.545 -0.367 26.0052 26.0052 0.4155 0.0080 0.041528 -1.332502 11.93 490 720 0.00 0.00 0.0000 0.0000
0.335 4 10.306684 1.117217 2.829004 3.746033 6.050110 -2.815247 20.59 20.59 -0.8 -0.8 -0.576 -0.494 25.5145 25.5145 0.4161 0.0081 0.038932 -1.330372 11.93 490 730 0.00 0.00 0.0000 0.0000
0.336 4 9.995014 -1.776518 1.129204 3.936768 5.882263 -2.243042 19.75 19.75 -0.8 -1.0 -0.589 -0.570 25.0420 25.5145 0.4167 0.0081 0.041528 -1.331263 11.90 510 760 0.00 0.00 0.0000 0.0000
0.337 4 11.152987 -0.666494 2.174497 5.363464 5.050659 -2.273560 18.91 18.91 -0.8 -0.8 -0.500 -0.545 24.1477 23.7240 0.4175 0.0081 0.041528 -1.332892 11.90 490 720 0.00 0.00 0.0000 0.0000
0.338 4 10.577598 -1.939546 3.735244 7.934570 5.134583 -2.296448 18.07 18.07 -1.0 -1.3 -0.532 -0.500 23.7240 24.1477 0.4183 0.0081 0.041528 -1.332247 11.90 490 720 0.00 0.00 0.0000 0.0000
0.339 4 9.882334 -0.776777 3.025596 9.407043 5.348206 -2.754211 17.23 17.23 -1.1 -0.8 -0.640 -0.557 22.9198 21.4646 0.4187 0.0082 0.041528 -1.330577 11.90 490 730 0.00 0.00 0.0000 0.0000
0.340 4 10.472109 -0.155835 2.490962 9.376526 4.890442 -2.830505 16.39 16.39 -1.1 -0.8 -0.659 -0.627 21.8108 21.1292 0.4195 0.0082 0.041528 -1.329992 11.90 490 710 0.00 0.00 0.0000 0.0000
0.341 4 10.452929 0.656904 1.870019 8.018494 4.547119 -2.799988 15.55 15.55 -1.6 -1.3 -0.557 -0.621 21.8108 21.1292 0.4199 0.0082 0.041528 -1.330614 11.93 510 740 0.00 0.00 0.0000 0.0000
0.342 4 10.697471 0.383594 1.126807 6.881714 3.288269 -2.693176 14.71 14.71 -1.3 -1.3 -0.488 -0.469 20.1831 20.1831 0.4207 0.0082 0.041528 -1.332510 11.93 490 720 0.00 0.00 0.0000 0.0000
0.343 4 10.735829 0.906240 2.869761 5.737305 2.944946 -2.655029 13.87 13.87 -1.7 -1.2 -0.564 -0.488 19.8863 19.0460 0.4211 0.0083 0.041528 -1.333550 11.93 490 750 0.00 0.00 0.0000 0.0000
0.344 4 10.304287 -0.124668 3.366035 5.943298 3.250122 -2.700806 13.03 13.03 -1.6 -1.8 -0.621 -0.513 18.7815 19.0460 0.4217 0.0083 0.038932 -1.332482 11.93 490 750 0.00 0.00 0.0000 0.0000
0.345 4 10.311480 0.187002 2.565283 6.500244 3.807068 -3.242493 12.18 12.18 -2.0 -1.8 -0.697 -0.602 18.5242 18.0303 0.4223 0.0083 0.041528 -1.331600 11.93 490 750 0.00 0.00 0.0000 0.0000
0.346 4 10.069336 -0.234951 2.162510 6.851196 3.860474 -3.364563 11.34 11.34 -2.2 -1.8 -0.741 -0.684 17.7930 17.1173 0.4227 0.0083 0.041528 -1.331761 11.80 510 770 0.00 0.00 0.0000 0.0000
0.347 4 10.256337 0.220566 2.279985 6.340027 3.730774 -3.509521 10.50 10.50 -2.5 -2.3 -0.785 -0.760 17.3368 16.9034 0.4231 0.0083 0.041528 -1.332169 11.80 490 740 0.00 0.00 0.0000 0.0000
0.348 4 10.150849 0.311670 2.872158 5.531311 4.249573 -3.890991 9.66 9.66 -2.5 -1.9 -0.716 -0.747 16.2924 15.1940 0.4235 0.0084 0.041528 -1.331929 11.80 490 750 0.00 0.00 0.0000 0.0000
0.349 4 10.661509 -1.781313 2.371089 5.699158 3.898621 -2.960205 8.82 8.82 -2.2 -2.2 -0.760 -0.703 14.6986 14.8601 0.4241 0.0084 0.038932 -1.331692 11.80 490 750 0.00 0.00 0.0000 0.0000
0.350 4 10.752612 0.942202 2.291973 4.707336 3.837585 -3.509521 7.98 7.98 -2.5 -2.5 -0.811 -0.716 14.2344 14.3858 0.4243 0.0084 0.041528 -1.332113 11.80 490 750 0.00 0.00 0.0000 0.0000
0.351 4 9.455585 -1.407310 3.063955 5.142212 4.501343 -3.242493 7.14 7.14 -1.8 -2.4 -0.861 -0.804 11.8620 13.1288 0.4247 0.0084 0.041528 -1.331586 11.74 510 770 0.00 0.00 0.0000 0.0000
0.352 4 10.546431 -1.522388 3.207803 7.080078 5.233765 -3.273010 6.30 6.30 -2.2 -1.7 -0.906 -0.855 11.7589 10.8182 0.4251 0.0084 0.041528 -1.330212 11.74 490 740 0.00 0.00 0.0000 0.0000
0.353 4 10.740624 0.397979 1.961123 7.720947 4.669189 -3.532410 5.46 5.46 -2.4 -2.0 -0.912 -0.842 11.0842 10.3227 0.4255 0.0084 0.041528 -1.330179 11.74 490 750 0.00 0.00 0.0000 0.0000
0.354 4 10.404980 -0.805547 2.483769 8.003235 3.540039 -3.356934 4.62 4.62 -2.0 -2.4 -0.880 -0.773 9.3908 10.1674 0.4257 0.0085 0.038932 -1.330765 11.74 490 750 0.00 0.00 0.0000 0.0000
0.355 4 10.618354 0.956587 2.996826 7.308960 3.227234 -3.211975 3.78 3.78 -2.5 -1.8 -0.880 -0.773 9.1991 8.0974 0.4259 0.0085 0.041528 -1.330416 11.74 490 750 0.00 0.00 0.0000 0.0000
0.356 4 10.052553 1.030908 2.196074 6.538391 3.913879 -3.486633 2.94 2.94 -1.9 -2.4 -0.868 -0.754 7.2314 8.0974 0.4261 0.0085 0.038932 -1.330261 11.74 510 770 0.00 0.00 0.0000 0.0000
0.357 4 9.716908 -0.688071 1.414502 6.576538 3.768921 -3.540039 2.10 2.10 -2.5 -2.4 -0.728 -0.703 7.2314 7.1172 0.4263 0.0085 0.041528 -1.331397 11.74 490 750 0.00 0.00 0.0000 0.0000
0.358 4 10.956396 1.114819 2.097778 5.432129 3.120422 -3.723145 1.26 1.26 -2.3 -2.9 -0.652 -0.690 6.4394 7.1172 0.4265 0.0085 0.038932 -1.332773 11.74 490 790 0.00 0.00 0.0000 0.0000
0.359 4 10.385800 0.436338 3.430767 4.768372 3.387451 -4.028320 0.42 0.42 -2.6 -2.3 -0.652 -0.722 6.2031 5.6111 0.4265 0.0085 0.038932 -1.332399 11.74 490 820 0.00 0.00 0.0000 0.0000
0.360 4 9.465176 -0.759995 3.150264 5.455017 3.883362 -3.593445 0.00 0.00 -2.8 -1.8 -0.614 -0.760 6.2031 4.4192 0.4267 0.0085 0.041528 -1.330716 11.74 490 820 0.00 0.00 0.0000 0.0000
0.361 4 11.083462 -0.764790 1.973110 6.690979 3.875732 -3.929138 0.00 0.00 -2.4 -1.8 -0.652 -0.709 5.3449 4.4192 0.4269 0.0085 0.038932 -1.330478 11.79 510 840 0.00 0.00 0.0000 0.0000
0.362 4 10.287504 -0.580186 0.944600 7.537842 3.555298 -4.142761 0.00 0.00 -2.4 -1.9 -0.697 -0.633 5.3449 4.4192 0.4269 0.0085 0.038932 -1.332521 11.79 490 810 0.00 0.00 0.0000 0.0000
0.363 4 9.714512 -0.875073 2.737900 7.980347 3.303528 -3.799438 0.00 0.00 -2.5 -1.7 -0.678 -0.595 5.3449 4.0366 0.4269 0.0085 0.038932 -1.333554 11.79 490 810 0.00 0.00 0.0000 0.0000
0.364 4 10.630342 0.798354 4.907602 6.286621 4.066467 -3.677368 0.00 0.00 -1.8 -1.2 -0.697 -0.557 3.9890 3.1087 0.4269 0.0085 0.038932 -1.331186 11.79 490 820 0.00 0.00 0.0000 0.0000
0.365 4 10.093310 0.234951 2.881748 4.821777 4.714966 -3.318787 0.00 0.00 -1.3 -0.9 -0.621 -0.488 3.0803 2.5276 0.4269 0.0085 0.038932 -1.328819 11.79 490 810 0.00 0.00 0.0000 0.0000
0.366 4 10.697471 -0.409966 0.786367 4.737854 4.020691 -3.051758 0.00 0.00 -1.0 -0.8 -0.519 -0.317 2.4996 2.1229 0.4269 0.0085 0.038932 -1.330055 11.90 510 840 0.00 0.00 0.0000 0.0000
0.367 4 10.695073 0.098296 1.944341 5.523682 3.173828 -3.547668 0.00 0.00 -0.8 -0.8 -0.355 -0.196 2.1162 1.8398 0.4269 0.0085 0.038932 -1.332253 11.90 490 810 0.00 0.00 0.0000 0.0000
0.368 4 9.719306 -0.944600 3.085532 7.080078 3.150940 -3.662109 0.00 0.00 -0.8 -0.8 -0.215 -0.120 1.8299 1.6195 0.4269 0.0085 0.038932 -1.332097 11.90 490 810 0.00 0.00 0.0000 0.0000
0.369 4 9.999809 1.033306 4.114043 6.675720 4.325867 -3.952026 0.00 0.00 -0.8 -0.8 -0.127 -0.051 1.6118 1.4463 0.4269 0.0085 0.038932 -1.329851 11.90 490 820 0.00 0.00 0.0000 0.0000
0.370 4 10.361826 -0.105488 2.833799 6.324768 5.180359 -4.043579 0.00 0.00 -0.8 -0.8 -0.051 -0.032 1.4401 1.3065 0.4269 0.0085 0.038932 -1.328033 11.90 490 810 0.00 0.00 0.0000 0.0000
0.371 4 10.397788 -0.095898 -0.081514 6.172180 3.967285 -4.074097 0.00 0.00 -0.8 -0.8 -0.019 -0.032 1.2990 1.1893 0.4269 0.0085 0.038932 -1.330195 11.90 510 830 0.00 0.00 0.0000 0.0000
0.372 4 10.517661 0.287695 1.325796 5.836487 2.799988 -4.119873 0.00 0.00 -0.8 -0.8 0.000 0.013 1.1872 1.0950 0.4269 0.0085 0.038932 -1.333737 11.90 490 810 0.00 0.00 0.0000 0.0000
0.373 4 10.177221 -0.297285 4.576753 5.897522 3.906250 -3.997803 0.00 0.00 -0.8 -0.8 0.019 -0.032 1.0914 1.0129 0.4269 0.0085 0.038932 -1.332948 11.90 490 820 0.00 0.00 0.0000 0.0000
0.374 4 10.007002 -0.100693 3.598589 6.179810 5.012512 -3.974915 0.00 0.00 -0.8 -0.8 0.025 -0.025 1.0099 0.9423 0.4269 0.0085 0.038932 -1.329978 11.90 490 810 0.00 0.00 0.0000 0.0000
0.375 4 10.184414 -0.445928 1.467246 6.431580 4.661560 -4.035950 0.00 0.00 -0.8 0.8 0.032 -0.013 0.9397 0.8810 0.4269 0.0085 0.038932 -1.329828 11.90 490 810 0.00 0.00 0.0000 0.0000
0.376 4 10.414570 -0.395581 1.757339 6.813049 3.837585 -4.058838 0.00 0.00 -0.8 -0.8 0.019 0.044 0.8775 0.8261 0.4269 0.0085 0.038932 -1.331455 11.93 510 840 0.00 0.00 0.0000 0.0000
0.377 4 10.416967 -0.182207 2.968056 7.026672 4.096985 -4.074097 0.00 0.00 -0.8 -0.8 0.032 0.032 0.8251 0.7794 0.4269 0.0085 0.038932 -1.331722 11.93 490 810 0.00 0.00 0.0000 0.0000
0.378 4 10.184414 0.004795 2.881748 6.721497 4.676819 -3.997803 0.00 0.00 -0.8 0.8 0.025 0.019 0.7776 0.7369 0.4269 0.0085 0.038932 -1.330902 11.93 490 810 0.00 0.00 0.0000 0.0000
0.379 4 10.253941 -0.031167 2.205664 6.477356 4.333496 -3.936768 0.00 0.00 -0.8 -0.0 0.006 0.032 0.7353 0.6988 0.4269 0.0085 0.038932 -1.330746 11.93 490 810 0.00 0.00 0.0000 0.0000
0.380 4 10.229965 0.067129 2.630015 6.469727 4.417419 -4.058838 0.00 0.00 -0.8 -0.8 0.013 0.032 0.6974 0.6645 0.4269 0.0085 0.038932 -1.330835 11.93 490 810 0.00 0.00 0.0000 0.0000
0.381 4 10.184414 -0.110283 2.630015 6.790161 4.676819 -4.089355 0.00 0.00 -0.8 -0.8 0.025 -0.000 0.6626 0.6328 0.4269 0.0085 0.038932 -1.330514 11.90 510 840 0.00 0.00 0.0000 0.0000
0.382 4 10.237158 0.062334 2.265600 6.713867 4.524231 -4.196167 0.00 0.00 0.0 0.8 0.013 -0.019 0.6322 0.6050 0.4269 0.0085 0.038932 -1.330534 11.90 490 810 0.00 0.00 0.0000 0.0000
0.383 4 10.256337 0.122271 2.265600 6.622314 4.226685 -4.158020 0.00 0.00 -0.0 -0.0 0.051 0.019 0.6040 0.5791 0.4269 0.0085 0.038932 -1.330907 11.90 490 810 0.00 0.00 0.0000 0.0000
0.384 4 10.148452 0.059937 2.543706 6.507874 4.226685 -4.196167 0.00 0.00 -0.8 -0.8 0.070 0.025 0.5781 0.5553 0.4269 0.0085 0.038932 -1.331000 11.90 490 810 0.00 0.00 0.0000 0.0000
0.385 4 10.160439 0.103091 2.771465 6.484985 4.577637 -4.379272 0.00 0.00 -0.8 -0.8 -0.019 -0.032 0.5544 0.5334 0.4269 0.0085 0.038932 -1.330604 11.90 490 810 0.00 0.00 0.0000 0.0000
0.386 4 10.174824 -0.112681 2.196074 6.668091 4.508972 -4.547119 0.00 0.00 -0.8 0.8 0.000 -0.025 0.5322 0.5128 0.4269 0.0085 0.038932 -1.330541 11.90 510 830 0.00 0.00 0.0000 0.0000
0.387 4 10.258735 -0.163027 2.169702 6.561279 4.447937 -4.379272 0.00 0.00 0.8 0.8 0.013 -0.013 0.5124 0.4944 0.4269 0.0085 0.038932 -1.331053 11.90 490 810 0.00 0.00 0.0000 0.0000
0.388 4 10.220376 -0.210977 2.872158 6.599426 4.714966 -4.150391 0.00 0.00 -0.8 -0.8 0.057 -0.013 0.4937 0.4770 0.4269 0.0085 0.038932 -1.330945 11.90 490 810 0.00 0.00 0.0000 0.0000
0.389 4 10.186811 -0.143848 2.876953 6.835938 4.898071 -4.104614 0.00 0.00 -0.8 -0.8 0.032 -0.076 0.4763 0.4607 0.4269 0.0085 0.038932 -1.330173 11.90 490 810 0.00 0.00 0.0000 0.0000
0.390 4 10.263530 -0.151040 2.390269 6.851196 4.676819 -4.081726 0.00 0.00 -0.8 -0.8 0.000 -0.038 0.4601 0.4456 0.4269 0.0085 0.038932 -1.329865 11.90 490 810 0.00 0.00 0.0000 0.0000
0.391 4 10.301889 -0.083911 2.080996 6.736755 4.722595 -4.112244 0.00 0.00 0.8 0.8 0.019 -0.032 -0.4478 0.4311 0.4267 0.0085 0.041528 -1.330315 11.91 510 840 0.00 0.00 0.0000 0.0000
0.392 4 10.203593 -0.117476 2.536514 6.729126 4.783630 -4.173279 0.00 0.00 0.8 0.8 0.076 0.057 -0.4478 0.4180 0.4267 0.0085 0.041528 -1.330609 11.91 490 810 0.00 0.00 0.0000 0.0000
0.393 4 10.107695 -0.043154 2.699541 6.843567 5.050659 -4.127502 0.00 0.00 0.8 -0.8 0.057 0.057 -0.4478 0.4055 0.4267 0.0085 0.041528 -1.330284 11.91 490 810 0.00 0.00 0.0000 0.0000
0.394 4 10.107695 -0.038359 2.383076 6.935120 5.050659 -4.173279 0.00 0.00 0.8 -0.8 0.019 -0.019 -0.4478 0.3937 0.4267 0.0085 0.041528 -1.330083 11.91 490 810 0.00 0.00 0.0000 0.0000
0.395 4 10.313877 -0.002397 2.342319 7.095337 4.890442 -4.203796 0.00 0.00 0.8 -0.0 0.019 -0.019 -0.4478 0.3825 0.4267 0.0085 0.041528 -1.330260 11.91 490 810 0.00 0.00 0.0000 0.0000
0.396 4 10.323466 -0.016782 2.378281 6.889343 4.928589 -4.203796 0.00 0.00 -0.8 0.8 -0.006 0.038 -0.4478 0.3718 0.4267 0.0085 0.041528 -1.330485 11.91 510 830 0.00 0.00 0.0000 0.0000
0.397 4 10.184414 -0.033564 2.493359 6.942749 4.959106 -4.249573 0.00 0.00 -0.8 -0.8 0.013 -0.006 -0.4478 0.3621 0.4267 0.0085 0.041528 -1.330539 11.91 490 810 0.00 0.00 0.0000 0.0000
0.398 4 10.136464 -0.062334 2.625220 6.912231 4.905701 -4.333496 0.00 0.00 0.8 -0.8 0.006 -0.038 -0.4478 0.3526 0.4267 0.0085 0.041528 -1.330325 11.91 490 810 0.00 0.00 0.0000 0.0000
0.399 4 10.253941 -0.163027 2.644399 6.820679 4.814148 -4.409790 0.00 0.00 0.0 0.8 0.076 -0.025 -0.4478 0.3437 0.4267 0.0085 0.041528 -1.329995 11.91 490 810 0.00 0.00 0.0000 0.0000
0.400 4 10.299492 -0.170220 2.522129 6.904602 4.966736 -4.379272 0.00 0.00 -0.8 0.8 0.044 0.006 -0.4478 0.3351 0.4267 0.0085 0.041528 -1.329802 11.91 490 810 0.00 0.00 0.0000 0.0000
0.401 4 10.253941 -0.227759 2.455000 6.935120 4.951477 -4.371643 0.00 0.00 -0.8 -0.8 -0.025 0.038 -0.4478 0.3269 0.4267 0.0085 0.041528 -1.329784 11.93 510 830 0.00 0.00 0.0000 0.0000
0.402 4 10.270722 -0.225361 2.665977 6.958008 4.936218 -4.302979 0.00 0.00 0.8 -0.8 -0.006 -0.019 -0.4478 0.3193 0.4267 0.0085 0.041528 -1.329629 11.93 490 810 0.00 0.00 0.0000 0.0000
0.403 4 10.241953 -0.165425 2.589258 6.904602 5.035400 -4.234314 0.00 0.00 0.8 -0.8 0.019 -0.032 -0.4478 0.3119 0.4267 0.0085 0.041528 -1.329352 11.93 490 810 0.00 0.00 0.0000 0.0000
0.404 4 10.225170 -0.122271 2.498154 6.858826 5.050659 -4.371643 0.00 0.00 -0.8 0.8 0.044 -0.019 -0.4478 0.3049 0.4267 0.0085 0.041528 -1.329222 11.93 490 810 0.00 0.00 0.0000 0.0000
0.405 4 10.162837 -0.105488 2.536514 6.835938 5.119324 -4.264832 0.00 0.00 -0.8 0.8 -0.038 0.051 -0.4478 0.2982 0.4267 0.0085 0.041528 -1.329124 11.93 490 810 0.00 0.00 0.0000 0.0000
0.406 4 10.194004 -0.098296 2.469385 6.851196 5.249023 -4.325867 0.00 0.00 0.8 -0.8 -0.006 0.032 -0.4478 0.2916 0.4267 0.0085 0.041528 -1.329045 11.88 510 830 0.00 0.00 0.0000 0.0000
0.407 4 10.239555 -0.105488 2.380679 6.912231 5.081177 -4.364014 0.00 0.00 0.8 -0.8 -0.013 -0.006 -0.4478 0.2856 0.4267 0.0085 0.041528 -1.329128 11.88 490 810 0.00 0.00 0.0000 0.0000
0.408 4 10.313877 0.016782 2.476577 6.927490 4.890442 -4.333496 0.00 0.00 -0.8 0.8 0.038 -0.000 -0.4478 0.2797 0.4267 0.0085 0.041528 -1.329232 11.88 490 810 0.00 0.00 0.0000 0.0000
0.409 4 10.217978 -0.002397 2.582065 7.011414 4.913330 -4.371643 0.00 0.00 -0.8 0.0 -0.025 0.019 -0.4478 0.2740 0.4267 0.0085 0.041528 -1.329147 11.88 490 810 0.00 0.00 0.0000 0.0000
0.410 4 10.155644 -0.011987 2.426230 6.904602 4.959106 -4.577637 0.00 0.00 0.8 -0.8 -0.019 0.051 -0.4478 0.2686 0.4267 0.0085 0.041528 -1.329074 11.88 490 810 0.00 0.00 0.0000 0.0000
0.411 4 10.217978 -0.117476 2.373486 6.866455 4.859924 -4.539490 0.00 0.00 0.0 -0.8 0.013 -0.025 -0.4478 0.2632 0.4267 0.0085 0.041528 -1.329194 11.94 510 830 0.00 0.00 0.0000 0.0000
0.412 4 10.299492 -0.103091 2.526924 6.950378 4.898071 -4.585266 0.00 0.00 -0.8 0.8 0.038 -0.051 -0.4478 0.2583 0.4267 0.0085 0.041528 -1.329252 11.94 490 810 0.00 0.00 0.0000 0.0000
0.413 4 10.203593 -0.129463 2.579668 6.988525 5.104065 -4.707336 0.00 0.00 -0.0 0.8 -0.032 0.032 -0.4478 0.2535 0.4267 0.0085 0.041528 -1.329114 11.94 490 810 0.00 0.00 0.0000 0.0000
0.414 4 10.222774 -0.179810 2.536514 7.026672 5.249023 -4.562378 0.00 0.00 0.8 -0.8 0.019 0.032 -0.4478 0.2488 0.4267 0.0085 0.041528 -1.328951 11.94 490 810 0.00 0.00 0.0000 0.0000
